time,ax,ay,az
0.019,0.70,-0.43,-1.64
0.020,0.92,-0.59,-2.02
0.035,0.91,-0.42,-2.55
0.036,0.76,-0.29,-2.84
0.055,0.62,-0.24,-3.07
0.056,0.53,-0.13,-3.22
0.076,0.26,0.00,-3.10
0.077,0.10,0.32,-2.84
0.106,0.03,0.38,-2.61
0.107,0.17,0.46,-2.04
0.125,0.32,0.55,-1.50
0.126,0.64,0.51,-1.09
0.139,0.76,0.45,-0.78
0.140,0.63,0.54,-0.52
0.159,0.40,0.65,-0.28
0.160,0.38,0.66,0.15
0.193,0.51,0.71,0.55
0.196,0.45,0.69,0.77
0.199,0.29,0.70,1.02
0.200,0.24,0.82,1.29
0.222,0.36,0.55,1.65
0.223,0.41,0.33,2.02
0.232,0.60,0.13,2.21
0.233,0.62,-0.16,2.36
0.253,0.57,-0.22,2.24
0.255,0.48,-0.10,1.94
0.273,0.18,0.00,2.01
0.274,0.28,0.31,2.03
0.299,0.43,0.60,2.10
0.300,0.20,0.62,1.90
0.312,-0.17,0.15,1.47
0.314,-0.40,-0.05,1.25
0.332,-0.17,-0.27,1.23
0.333,-0.16,-0.83,0.99
0.358,-0.27,-1.12,1.06
0.359,-0.36,-0.97,1.16
0.376,-0.27,-1.29,1.19
0.377,-0.34,-1.67,0.97
0.396,-0.41,-1.53,0.56
0.397,-0.44,-1.31,0.25
0.416,-0.52,-1.17,-0.17
0.418,-0.65,-1.05,-0.68
0.436,-0.82,-0.87,-1.11
0.437,-0.77,-0.83,-1.79
0.456,-0.59,-1.06,-2.49
0.457,-0.46,-1.28,-2.78
0.480,-0.37,-1.36,-2.94
0.481,-0.12,-0.94,-2.77
0.516,0.03,-0.75,-2.82
0.517,0.03,-0.59,-2.96
0.518,0.28,-0.70,-2.99
0.519,0.62,-0.34,-2.67
0.536,0.65,0.10,-2.44
0.537,0.95,0.23,-2.32
0.556,0.78,0.31,-2.22
0.558,0.60,0.51,-1.81
0.576,0.24,0.54,-1.58
0.577,0.03,0.44,-1.31
0.600,0.24,0.29,-0.80
0.601,0.70,0.51,-0.10
0.620,1.21,0.93,0.73
0.621,1.32,0.78,1.11
0.649,1.05,0.59,1.50
0.650,0.79,0.33,1.07
0.660,0.44,0.22,1.08
0.661,-0.10,0.35,0.96
0.679,0.53,-0.04,0.47
0.680,1.07,-0.69,0.49
0.700,0.52,-0.44,0.64
0.701,0.07,-0.20,0.50
0.716,-0.43,-0.36,0.10
0.721,-1.03,-0.46,-0.04
0.736,-0.90,-0.01,0.37
0.737,-0.41,-0.19,1.19
0.752,-0.53,-0.44,1.74
0.756,-0.90,-0.42,1.61
0.773,-1.12,-0.18,0.93
0.774,-1.69,-0.24,-0.07
0.792,-2.97,-0.20,-0.87
0.793,-3.19,0.29,-1.47
0.812,-3.17,-0.11,-1.41
0.813,-2.97,-1.02,0.84
0.834,-2.03,-1.15,3.90
0.836,-0.89,-0.53,5.62
0.853,-0.89,-0.02,7.30
0.854,-1.74,0.11,6.41
0.883,-1.98,-0.26,4.55
0.884,-2.06,-1.44,2.17
0.892,-2.37,-1.90,-0.18
0.896,-1.40,-1.89,-1.03
0.916,-0.47,-2.50,-1.51
0.917,0.20,-2.50,-1.44
0.935,0.26,-2.46,-1.62
0.936,0.57,-2.12,0.26
0.956,1.25,1.12,2.35
0.957,0.82,2.73,1.80
0.976,-1.02,2.72,1.11
0.977,-2.41,2.62,-0.16
0.998,-3.27,2.59,-1.12
0.999,-3.42,2.15,-2.08
1.016,-2.22,2.57,-2.62
1.018,-0.36,3.06,-2.48
1.036,1.90,3.73,-1.10
1.037,4.10,4.86,0.54
1.056,5.17,5.55,0.95
1.057,4.44,6.03,1.37
1.075,3.48,6.19,1.16
1.077,2.33,5.41,0.89
1.096,2.25,5.05,0.23
1.097,2.29,4.35,0.39
1.122,2.19,3.66,0.63
1.123,1.97,3.04,0.38
1.142,2.01,2.47,0.01
1.144,2.75,2.09,0.29
1.160,3.33,1.35,0.64
1.161,3.71,0.99,1.70
1.173,3.66,-0.34,2.31
1.174,2.36,-1.19,2.19
1.203,2.42,-2.56,2.20
1.204,1.64,-3.60,2.22
1.222,0.40,-3.56,2.12
1.224,-0.34,-3.45,1.86
1.235,-1.11,-3.69,1.35
1.236,-2.23,-4.25,0.76
1.266,-2.48,-4.40,-0.19
1.268,-2.58,-4.10,-0.92
1.278,-1.98,-2.95,-0.87
1.279,-1.29,-2.62,-1.13
1.296,-1.14,-3.16,-1.96
1.296,-1.79,-3.22,-2.74
1.316,-2.14,-2.65,-3.69
1.317,-2.67,-1.78,-4.42
1.335,-2.80,-1.03,-4.32
1.337,-2.97,-0.50,-4.40
1.356,-3.36,-0.24,-4.71
1.357,-4.03,-0.64,-4.66
1.377,-3.94,-0.44,-4.90
1.378,-3.14,-0.58,-4.01
1.398,-1.63,-0.42,-2.65
1.399,-0.43,-0.88,-1.63
1.416,-0.12,-1.64,-1.22
1.417,0.18,-1.55,-0.46
1.437,0.36,-1.39,0.21
1.442,0.94,-0.54,1.41
1.456,0.69,2.17,4.06
1.457,2.02,3.08,4.11
1.477,3.09,3.22,4.26
1.480,3.70,4.02,3.54
1.497,4.15,3.97,2.88
1.498,5.39,4.34,3.32
1.517,6.19,4.89,2.85
1.518,6.38,4.79,2.63
1.540,6.11,4.94,2.26
1.541,5.77,4.72,1.25
1.556,4.91,4.26,0.36
1.558,3.37,4.29,-0.05
1.576,1.31,4.29,-0.88
1.577,-0.15,3.90,-1.52
1.600,-1.23,3.86,-1.45
1.609,-1.36,3.07,-1.14
1.616,-1.17,1.91,-0.22
1.617,-0.92,0.51,0.14
1.647,-0.81,-1.30,0.51
1.648,-0.40,-2.08,1.28
1.659,-0.87,-2.65,1.71
1.660,-2.09,-3.30,1.80
1.679,-3.05,-3.37,1.59
1.680,-3.27,-5.82,1.63
1.699,-3.64,-5.51,1.43
1.700,-3.57,-5.22,2.61
1.737,-3.95,-4.85,1.49
1.739,-3.85,-4.05,2.35
1.739,-3.52,-3.56,2.85
1.740,-3.94,-3.65,1.65
1.759,-3.60,-3.31,1.03
1.760,-2.86,-3.25,1.35
1.779,-2.42,-1.86,0.11
1.780,-2.37,-1.56,-0.59
1.799,-2.39,-2.01,-3.59
1.800,-3.01,0.55,-7.29
1.819,-0.72,-1.02,-2.03
1.820,-0.20,3.92,-3.50
1.840,0.54,2.72,-5.66
1.842,-0.25,1.74,-5.52
1.860,-0.95,-1.64,-5.38
1.861,-0.07,-2.20,-2.73
1.879,-0.40,-2.53,-2.77
1.880,-0.45,2.21,-2.15
1.899,-0.16,3.71,-1.41
1.900,1.07,2.86,-1.88
1.919,2.06,1.30,-2.50
1.920,1.70,0.00,-2.85
1.957,1.48,-0.78,-2.62
1.958,2.00,-0.50,-1.47
1.959,2.08,1.54,0.54
1.960,0.86,2.07,-2.33
1.977,-0.87,1.15,-0.95
1.981,-1.99,0.00,-0.71
1.999,-1.66,1.66,0.05
2.000,0.58,2.79,1.09
2.016,0.58,2.79,1.09
2.025,3.68,4.29,3.70
2.026,3.40,4.35,3.65
2.045,5.92,2.87,4.82
2.046,4.89,2.33,3.53
2.076,4.46,2.14,3.26
2.078,4.84,0.47,0.98
2.079,4.42,0.24,0.90
2.096,3.08,0.71,1.42
2.097,2.89,0.47,2.05
2.115,2.58,0.50,1.93
2.125,1.78,-0.04,2.68
2.126,1.02,0.52,3.00
2.145,-0.72,0.85,2.54
2.146,-2.39,0.56,1.88
2.165,-3.91,0.62,1.47
2.166,-4.66,0.01,0.63
2.185,-4.52,-0.24,0.23
2.187,-4.05,-0.04,0.18
2.205,-4.15,-0.02,0.07
2.207,-4.19,-0.03,-0.26
2.229,-4.65,-0.73,-0.93
2.230,-5.17,-0.26,-0.80
2.252,-5.15,-0.07,0.05
2.253,-5.63,0.54,0.60
2.270,-5.56,0.70,0.42
2.271,-5.63,0.34,0.49
2.282,-4.92,-0.05,0.08
2.284,-3.10,-0.18,-0.17
2.304,-0.06,-0.95,-0.48
2.312,1.92,-1.98,-1.49
2.325,2.30,-3.23,-3.22
2.326,2.36,-4.26,-4.37
2.343,0.42,-2.89,-4.36
2.344,0.09,-0.04,-4.46
2.364,1.58,-0.12,-4.68
2.366,3.70,-1.38,-3.52
2.403,4.08,-2.90,-3.34
2.404,4.24,-3.02,-3.04
2.405,4.14,-2.80,-2.92
2.406,3.31,-2.34,-1.25
2.440,2.10,-1.44,-0.32
2.441,0.90,0.04,0.56
2.442,-0.03,1.50,1.41
2.443,-0.08,2.60,1.88
2.467,0.79,2.98,2.60
2.468,1.91,2.88,2.37
2.486,3.92,2.38,2.54
2.487,4.59,1.02,2.53
2.506,4.71,-0.28,1.61
2.508,5.10,-0.46,1.36
2.535,5.38,0.00,2.02
2.537,4.04,0.73,1.82
2.546,2.96,1.01,1.62
2.547,2.72,1.15,1.85
2.579,2.70,1.46,1.66
2.580,2.87,0.99,2.23
2.581,2.42,-0.15,1.72
2.581,1.57,-0.94,1.49
2.605,1.81,-1.12,2.43
2.607,1.29,-0.33,2.02
2.625,0.86,0.12,0.91
2.632,-0.50,0.14,1.01
2.645,-3.32,-1.03,-0.39
2.646,-5.50,-2.25,-1.20
2.690,-4.83,-1.46,-1.33
2.691,-3.39,-1.36,-0.78
2.695,-2.45,-0.89,0.70
2.696,-1.25,-0.38,1.84
2.705,-2.86,0.65,2.41
2.706,-4.45,0.51,1.69
2.725,-4.72,0.13,1.08
2.727,-4.57,0.36,0.01
2.745,-4.79,1.69,1.84
2.746,-4.74,3.45,1.55
2.766,-5.06,3.20,0.64
2.767,-3.54,-0.28,-1.82
2.792,-1.38,-1.18,-4.53
2.794,-1.18,-1.58,-3.97
2.810,-3.05,-1.04,-6.12
2.811,-7.64,-5.24,-10.08
2.829,-6.40,-5.56,-10.05
2.831,-2.34,-4.74,-6.07
2.842,1.12,-0.84,-1.50
2.858,1.96,0.60,-1.32
2.868,1.68,0.09,-0.28
2.869,1.87,-0.19,-0.65
2.879,2.48,-0.60,-2.07
2.880,2.67,-1.13,0.13
2.900,4.35,-0.35,-1.34
2.901,3.90,-1.29,3.33
2.923,5.53,1.79,-0.17
2.930,4.49,2.67,1.79
2.962,3.40,4.44,0.13
2.963,2.14,1.51,-0.89
2.974,1.17,0.00,0.56
2.976,1.57,-0.87,1.89
2.983,2.27,0.71,1.90
2.984,3.07,1.14,3.40
3.012,3.61,2.18,4.71
3.021,4.60,1.52,4.28
3.023,2.75,-0.40,2.02
3.024,1.61,0.35,-0.24
3.042,0.42,1.37,-0.96
3.043,-0.74,-0.33,-1.26
3.061,-0.72,1.27,-0.94
3.063,-0.64,2.44,-0.52
3.085,-0.75,3.07,0.26
3.086,-1.23,1.48,0.71
3.107,-1.59,3.55,1.55
3.109,-1.85,0.81,1.16
3.121,-2.82,-0.52,1.51
3.123,-3.49,0.94,2.43
3.142,-4.25,0.24,2.20
3.144,-4.04,-0.40,2.18
3.177,-4.53,-0.75,0.83
3.179,-4.25,-0.77,0.50
3.187,-4.39,-1.57,-0.76
3.187,-3.49,-1.07,-0.71
3.209,-2.87,-0.83,-0.82
3.210,-2.35,-1.18,-0.72
3.224,-2.03,-1.55,-0.63
3.226,-2.36,-1.88,-0.47
3.243,-2.54,-2.37,-0.52
3.245,-3.94,-3.00,-1.91
3.261,-3.93,-1.43,-1.24
3.263,-2.29,-0.82,-2.42
3.285,-1.09,-0.31,-2.78
3.286,1.73,-0.45,-1.62
3.306,2.99,-1.36,-1.26
3.307,3.20,-1.34,-2.48
3.330,2.44,-1.62,-3.07
3.331,1.63,-2.38,-4.24
3.342,1.60,-3.44,-4.08
3.343,1.56,-3.89,-2.42
3.397,0.73,-3.92,-2.10
3.399,0.31,-3.77,-1.68
3.400,0.56,-3.87,-0.09
3.402,0.37,-4.14,0.87
3.456,0.28,-3.48,2.93
3.457,-0.02,-2.14,4.21
3.479,-0.62,-0.97,2.40
3.482,-0.84,0.09,1.69
3.490,0.41,1.49,1.73
3.491,2.01,3.12,1.02
3.492,3.44,4.60,0.17
3.500,3.85,4.94,-0.18
3.500,4.03,4.91,-0.53
3.501,4.31,5.10,-0.67
3.526,4.41,5.44,0.75
3.527,5.31,6.23,1.27
3.529,5.61,6.09,2.10
3.530,4.83,5.55,1.93
3.548,4.03,4.64,1.83
3.550,3.83,3.99,1.26
3.558,3.27,3.69,0.59
3.559,2.73,3.18,0.34
3.585,1.64,2.59,-0.46
3.586,-0.15,1.76,-0.43
3.611,0.15,0.74,1.48
3.616,-0.56,0.38,2.32
3.621,-1.59,-0.38,1.11
3.623,-3.16,-1.19,1.66
3.639,-4.62,-1.76,1.38
3.640,-4.79,-3.04,0.37
3.666,-4.60,-3.56,1.06
3.668,-4.54,-2.86,1.16
3.679,-6.10,-3.12,-0.44
3.680,-6.68,-5.31,-1.39
3.699,-4.86,-5.98,-1.13
3.700,-3.48,-4.63,0.09
3.730,-3.65,-3.15,1.40
3.731,-3.73,-1.63,1.75
3.739,-4.48,-0.25,1.26
3.740,-4.39,0.65,1.29
3.760,-2.68,0.20,2.95
3.763,2.80,-1.41,-1.54
3.781,5.64,-4.26,-2.68
3.783,3.99,-5.47,-6.36
3.799,0.52,-0.22,-9.03
3.801,-0.78,2.23,-7.92
3.819,-0.08,-4.63,0.24
3.820,4.60,-8.01,-4.77
3.849,8.58,-3.64,0.07
3.850,1.66,-1.03,-0.72
3.862,-0.40,-0.88,-1.53
3.864,0.58,1.18,-1.71
3.880,1.23,2.38,0.44
3.882,1.67,4.50,-0.86
3.900,2.31,4.19,-2.37
3.902,3.22,3.70,-1.55
3.919,2.38,4.21,-2.08
3.921,1.27,4.08,-1.85
3.940,0.56,2.36,-3.08
3.943,0.46,-1.40,-1.64
3.978,4.84,-3.31,1.46
3.980,4.40,0.01,8.95
3.983,3.15,2.88,6.47
3.991,1.58,4.93,1.71
4.008,0.29,5.47,2.69
4.030,-0.29,4.79,3.47
4.031,-0.94,5.15,-0.36
4.032,-0.85,4.34,-2.30
4.063,-0.50,3.51,-2.64
4.064,-0.54,1.93,-1.69
4.065,-1.70,1.46,-1.11
4.066,5.34,-29.12,0.36
4.084,4.15,-31.05,1.46
4.085,-4.67,-6.90,3.44
4.105,-7.23,3.97,2.96
4.106,-8.09,6.09,2.85
4.123,-7.18,5.16,2.63
4.124,-6.77,2.63,2.69
4.141,-5.49,1.02,4.78
4.143,-4.11,-3.47,2.92
4.164,-3.97,-4.86,2.22
4.165,-3.32,-4.21,2.71
4.181,-2.49,-3.92,3.14
4.183,-2.66,-3.97,2.26
4.203,-3.33,-4.66,1.76
4.204,-3.63,-4.67,1.80
4.223,-3.04,-3.51,3.00
4.224,-1.95,-1.86,4.08
4.250,-1.10,-0.39,4.45
4.251,-1.19,0.40,4.49
4.262,-1.44,1.64,3.52
4.263,-1.55,1.46,0.32
4.282,-0.51,1.45,-3.01
4.283,0.68,3.08,-3.89
4.302,3.16,2.91,-2.07
4.306,6.61,-1.49,-3.37
4.323,5.94,-3.10,-4.63
4.324,3.12,-3.96,-7.54
4.360,1.93,-4.23,-5.85
4.361,1.02,-3.50,-2.76
4.363,0.50,-2.81,-2.50
4.363,1.31,-2.17,-2.92
4.382,2.06,-2.35,-3.74
4.383,2.55,-2.49,-1.86
4.402,3.01,-2.05,0.00
4.403,3.95,-1.24,0.88
4.422,4.42,0.38,1.02
4.423,4.66,2.66,-0.47
4.443,3.89,4.43,-0.41
4.444,1.80,5.26,-2.55
4.462,0.61,6.81,-3.91
4.463,0.91,6.92,-3.34
4.481,1.13,7.03,-3.06
4.483,0.73,6.57,-2.70
4.502,0.04,7.50,-2.94
4.503,0.87,7.92,-2.50
4.522,-0.01,7.87,-3.04
4.523,-0.09,8.32,-2.90
4.545,0.58,8.06,-2.19
4.546,1.60,7.37,-1.48
4.563,2.34,6.84,-1.13
4.564,1.94,6.17,-0.40
4.583,1.38,5.65,0.85
4.584,0.59,4.18,2.89
4.604,0.70,4.48,2.99
4.606,-1.13,3.33,1.88
4.622,-3.25,1.76,1.84
4.623,-3.20,-0.79,4.31
4.652,-3.46,-2.49,5.58
4.653,-4.66,-4.43,6.31
4.663,-5.05,-7.78,8.18
4.664,-4.21,-11.31,10.53
4.683,-4.73,-14.02,10.22
4.685,-4.44,-13.03,7.85
4.705,-4.04,-10.03,4.66
4.713,-8.43,-5.66,-1.91
4.724,-3.87,-5.33,2.45
4.725,-3.18,-0.36,1.88
4.743,-2.54,3.46,2.37
4.744,-3.03,5.18,2.58
4.773,-1.82,7.66,-2.66
4.775,4.03,5.03,-6.64
4.782,8.64,-1.04,-4.78
4.783,9.81,-10.15,-12.15
4.806,10.84,-24.81,-19.61
4.808,11.95,-25.12,-2.03
4.825,11.13,-8.06,14.21
4.826,2.97,5.46,0.42
4.854,3.47,9.25,-0.49
4.856,2.13,9.76,-2.89
4.857,-0.20,9.39,-11.30
4.858,0.45,7.87,-11.64
4.887,0.88,4.00,-5.74
4.888,2.51,1.82,-1.98
4.905,4.85,1.70,-2.41
4.908,3.66,2.11,-3.58
4.927,0.18,-0.89,-1.83
4.928,-2.64,-1.67,-0.66
4.964,-4.04,-0.25,-0.31
4.965,-5.25,0.89,1.10
4.966,-6.98,2.02,2.30
4.967,-9.76,0.69,3.18
4.985,-10.80,-0.08,4.48
4.987,-9.31,1.70,5.84
4.996,-5.61,5.43,5.77
5.005,-1.92,6.27,2.93
5.015,0.64,3.48,1.44
5.017,1.94,0.95,1.45
5.049,0.52,-0.32,2.34
5.057,-0.44,-0.75,2.10
5.058,-0.45,-0.70,1.57
5.058,0.13,-0.58,1.15
5.106,0.91,0.03,0.89
5.107,1.38,0.93,0.99
5.107,1.24,0.98,1.36
5.108,0.66,0.91,1.19
5.117,0.04,0.05,1.26
5.118,-0.55,-0.87,1.61
5.135,-1.34,-2.23,2.46
5.136,-1.99,-3.36,2.14
5.163,-2.43,-3.93,1.97
5.165,-5.13,-5.03,0.85
5.190,-6.50,-4.97,1.01
5.191,-7.92,-4.37,1.37
5.206,-8.48,-3.22,1.19
5.207,-8.01,-2.77,1.84
5.223,-6.12,-2.45,3.39
5.224,-2.85,-1.95,3.72
5.242,-0.76,-2.29,3.38
5.244,-0.10,-1.87,2.81
5.264,0.39,-0.95,1.24
5.265,0.68,-0.89,-2.61
5.295,2.82,3.01,-4.81
5.297,5.61,3.18,-4.12
5.304,7.77,1.25,-4.18
5.305,8.68,-2.83,-3.94
5.332,8.16,-5.06,-5.53
5.334,6.24,-7.58,-5.39
5.344,4.69,-7.14,-4.04
5.345,4.68,-4.41,-1.90
5.362,4.64,-2.77,-0.58
5.363,4.13,-2.79,-0.95
5.382,4.07,-3.03,-1.14
5.384,4.86,-2.29,-0.16
5.421,6.57,-0.44,1.05
5.422,4.50,1.06,0.66
5.423,2.37,4.36,-1.15
5.424,1.64,5.47,-1.36
5.443,0.38,5.75,-1.85
5.444,-0.25,6.26,-2.67
5.464,-1.04,6.49,-3.20
5.466,-0.90,7.43,-2.35
5.485,-2.31,7.58,-0.86
5.486,-3.34,7.94,-3.63
5.511,-2.69,7.39,-2.41
5.513,-1.56,7.22,-1.73
5.523,0.13,8.21,-2.42
5.524,1.11,8.61,-2.30
5.546,0.89,8.27,-1.56
5.547,1.66,7.39,-1.02
5.572,2.05,6.23,-0.22
5.573,2.12,5.59,-0.46
5.595,1.92,4.72,-0.13
5.598,1.18,3.75,0.76
5.602,0.59,2.89,1.10
5.603,-0.51,2.01,1.13
5.622,-1.68,1.26,1.03
5.624,-2.11,-0.01,2.26
5.644,-2.79,-2.44,4.36
5.645,-4.80,-7.71,8.37
5.662,-6.32,-13.91,12.66
5.664,-7.53,-17.70,12.26
5.691,-6.81,-15.72,9.54
5.692,-4.75,-10.72,8.04
5.722,-3.28,-4.62,3.61
5.723,-4.72,-1.87,2.75
5.725,-2.48,2.23,1.87
5.725,-1.06,4.48,3.87
5.742,2.87,3.43,1.05
5.743,5.25,-3.12,-4.66
5.762,4.38,-14.44,-3.26
5.764,6.90,-22.86,-11.49
5.783,12.27,-19.61,-12.78
5.786,14.35,-2.41,-0.93
5.804,10.36,8.46,0.81
5.805,8.58,9.98,-0.36
5.833,3.71,7.25,-5.40
5.834,-0.89,5.50,-11.82
5.849,-2.01,4.62,-12.75
5.850,-1.24,2.83,-9.66
5.863,-0.13,0.82,-5.72
5.864,0.38,0.84,-4.13
5.882,-0.05,1.80,-3.02
5.884,-0.15,2.44,-2.27
5.906,-1.08,1.79,-1.24
5.908,-3.33,1.19,0.40
5.922,-5.60,0.76,2.64
5.923,-7.97,1.19,4.34
5.943,-8.88,2.36,5.43
5.944,-9.20,2.65,5.75
5.963,-7.40,3.39,4.83
5.965,-5.08,3.65,3.79
5.989,-3.05,3.60,2.23
5.989,-0.85,3.18,2.20
6.006,0.34,2.48,3.25
6.013,0.21,1.35,4.53
6.015,-0.64,1.00,3.99
6.051,-0.60,0.83,3.38
6.052,0.50,0.32,2.58
6.053,1.41,0.44,1.94
6.057,1.98,0.81,1.44
6.060,2.05,1.18,0.29
6.075,1.61,0.26,-0.13
6.077,0.59,-0.71,-0.66
6.102,-0.08,-1.24,-0.14
6.103,-0.86,-1.67,1.13
6.124,-2.10,-2.42,2.73
6.125,-3.03,-3.31,2.73
6.142,-4.49,-4.41,1.49
6.143,-6.24,-4.65,0.72
6.161,-7.04,-4.32,0.39
6.164,-7.22,-3.98,0.38
6.183,-6.65,-3.37,1.23
6.184,-5.13,-2.98,3.08
6.216,-2.90,-2.57,4.09
6.217,-1.13,-2.55,3.86
6.225,-0.41,-2.04,2.94
6.226,-0.53,-1.22,1.93
6.256,-0.34,-0.06,-0.14
6.258,0.16,-0.38,-3.29
6.265,3.08,4.26,-2.94
6.267,5.45,4.43,-2.42
6.285,6.32,0.22,-2.04
6.286,7.68,-3.89,-3.58
6.311,6.48,-5.38,-6.07
6.319,4.75,-7.10,-6.13
6.347,3.34,-7.66,-5.17
6.348,2.32,-5.66,-3.51
6.350,2.54,-4.11,-0.69
6.352,4.45,-4.79,0.02
6.364,5.39,-5.59,0.19
6.366,6.46,-4.41,0.44
6.383,6.24,-2.44,1.37
6.385,6.15,1.65,0.28
6.407,5.26,4.91,-0.89
6.409,2.66,5.29,-1.55
6.436,1.31,6.75,-2.21
6.439,0.74,7.60,-3.11
6.440,-0.34,8.42,-3.21
6.441,0.12,9.08,-1.92
6.470,-0.21,9.73,-2.43
6.471,-1.05,8.37,-1.88
6.479,-1.96,6.86,-2.83
6.480,-2.18,7.77,-3.02
6.499,-1.65,10.20,-2.89
6.500,-0.13,10.22,-2.80
6.529,1.28,8.82,-1.84
6.531,1.53,7.38,-0.76
6.539,1.43,6.33,-0.03
6.540,1.36,5.02,0.57
6.559,1.16,4.20,1.18
6.560,0.60,3.11,1.07
6.578,-0.90,2.88,0.45
6.580,-1.99,2.47,-0.29
6.610,-2.35,1.99,1.18
6.611,-2.46,0.34,3.18
6.623,-2.67,-2.61,5.57
6.624,-2.94,-7.97,9.62
6.652,-6.39,-18.31,14.55
6.654,-8.98,-25.70,13.10
6.659,-7.42,-19.96,12.07
6.661,-3.99,-12.06,8.54
6.678,-6.84,-3.93,5.64
6.680,-6.08,0.00,1.62
6.699,-4.53,4.04,1.03
6.700,-2.92,7.16,-1.63
6.732,2.40,8.60,-4.24
6.733,10.25,4.70,-6.57
6.754,10.73,-6.47,-4.82
6.755,8.66,-21.27,-12.20
6.758,13.56,-26.76,-4.47
6.760,9.29,-15.49,1.55
6.778,2.05,2.22,-6.96
6.780,6.04,9.35,-2.23
6.799,4.48,10.32,-3.91
6.801,0.27,8.98,-10.13
6.832,-1.60,7.23,-12.45
6.833,0.16,5.45,-9.61
6.847,1.13,2.93,-6.76
6.848,1.12,1.10,-5.03
6.872,0.60,0.31,-3.25
6.873,0.15,0.04,-2.20
6.882,-0.78,-0.08,-1.54
6.884,-1.97,0.01,-0.41
6.904,-3.41,0.03,1.35
6.905,-5.67,0.16,3.88
6.935,-8.34,1.55,5.84
6.937,-8.85,3.05,6.30
6.943,-7.17,4.06,5.31
6.944,-4.08,5.61,3.64
6.969,-0.91,5.70,2.84
6.971,0.25,3.08,3.01
6.983,0.14,1.82,3.58
6.983,-0.26,1.31,3.65
7.003,-0.72,0.86,3.49
7.011,-0.92,0.79,3.62
7.023,0.40,0.57,2.54
7.036,1.05,0.44,1.19
7.042,1.44,0.61,1.28
7.043,1.47,0.99,1.44
7.086,0.26,0.34,1.42
7.087,-0.63,0.24,1.52
7.088,-1.66,-0.34,1.26
7.089,-2.55,-1.39,1.53
7.103,-3.63,-2.50,1.27
7.103,-4.35,-3.30,0.95
7.121,-4.39,-4.18,0.18
7.123,-5.06,-4.66,0.09
7.144,-6.00,-4.45,1.21
7.150,-6.35,-3.76,2.39
7.165,-5.91,-3.03,2.75
7.166,-5.41,-3.33,2.82
7.181,-4.36,-3.59,1.79
7.183,-2.84,-3.33,0.87
7.207,-1.67,-2.51,1.20
7.208,-0.80,-1.96,1.06
7.215,-0.11,-1.63,0.23
7.216,0.05,-0.32,-1.37
7.238,2.94,1.30,-3.77
7.239,5.05,3.97,-3.15
7.256,5.76,2.78,-1.82
7.258,6.33,0.59,-0.76
7.275,7.11,-2.48,-2.18
7.277,6.96,-5.03,-4.56
7.296,5.37,-7.56,-5.43
7.297,4.74,-7.19,-4.62
7.325,4.91,-4.71,-2.54
7.326,5.09,-3.33,-0.36
7.361,4.79,-3.27,0.24
7.363,5.42,-3.72,0.55
7.368,5.56,-2.58,0.97
7.371,4.98,-0.69,0.68
7.392,3.56,2.03,0.49
7.394,1.81,4.24,-1.04
7.402,0.59,4.03,-1.97
7.403,0.00,5.69,-2.28
7.422,-1.48,7.11,-3.04
7.423,-1.80,7.29,-2.40
7.451,-1.09,7.90,-2.47
7.453,-1.27,8.07,-2.37
7.462,-0.62,7.37,-1.92
7.463,0.27,7.35,-2.12
7.483,0.08,7.62,-2.30
7.485,0.65,7.94,-2.18
7.505,1.56,7.94,-2.43
7.506,2.24,7.60,-1.62
7.524,2.49,6.55,-1.64
7.529,2.71,5.70,-1.42
7.571,2.57,5.23,-0.90
7.573,1.86,4.48,-0.15
7.574,0.65,3.41,0.71
7.575,-0.57,2.53,1.54
7.583,-2.24,2.12,2.21
7.584,-3.67,1.80,2.35
7.611,-3.94,0.30,3.15
7.613,-4.61,-2.08,5.90
7.640,-4.56,-6.79,10.24
7.642,-4.04,-9.43,12.10
7.643,-5.00,-13.71,12.39
7.644,-4.90,-14.04,8.69
7.668,-3.88,-10.14,7.43
7.669,-5.01,-8.28,4.12
7.675,-3.69,-4.34,2.08
7.676,-3.01,-0.28,1.69
7.701,-2.40,3.34,2.13
7.702,-1.37,5.60,4.22
7.718,1.86,3.73,-0.95
7.719,2.06,-3.56,-5.12
7.735,3.65,-13.24,-2.45
7.737,6.15,-21.99,-8.73
7.772,9.65,-17.46,-13.34
7.773,13.39,-4.84,-1.12
7.794,9.93,6.39,-0.85
7.796,9.68,8.13,-2.24
7.803,3.93,7.21,-6.38
7.805,-0.62,5.63,-11.96
7.832,-2.12,4.32,-12.80
7.834,-0.95,2.34,-9.95
7.878,1.48,0.44,-5.98
7.880,1.72,1.17,-4.12
7.881,0.66,1.75,-3.53
7.881,-0.83,1.25,-3.00
7.884,-2.42,0.70,-2.76
7.885,-3.18,0.80,-1.86
7.903,-4.11,0.76,0.80
7.903,-5.41,0.48,3.77
7.922,-6.53,0.80,5.61
7.923,-7.84,1.59,5.74
7.964,-9.20,2.16,4.80
7.966,-7.48,2.60,3.82
7.967,-5.19,2.76,3.36
7.968,-3.31,2.89,3.98
7.982,-1.85,3.25,3.55
7.983,-0.84,3.04,3.59
8.002,0.56,2.59,3.00
8.007,0.68,2.01,2.74
8.024,0.42,1.94,1.78
8.025,0.78,1.74,1.91
8.040,1.47,1.36,1.26
8.075,1.87,1.31,0.36
8.076,1.92,0.67,0.54
8.077,2.14,-0.15,1.28
8.080,1.98,-0.89,1.45
8.081,1.38,-1.37,1.41
8.095,0.12,-2.34,1.89
8.097,-1.41,-3.04,2.32
8.131,-2.41,-3.48,1.75
8.132,-3.57,-4.17,0.83
8.138,-4.89,-4.97,1.04
8.139,-6.07,-4.92,1.13
8.187,-6.61,-4.12,1.18
8.188,-6.02,-3.18,1.83
8.189,-5.00,-2.76,2.30
8.190,-4.12,-2.85,2.69
8.202,-2.55,-2.78,2.29
8.203,-2.05,-2.64,1.67
8.222,-1.29,-2.00,0.57
8.223,-0.64,-0.64,0.00
8.245,-0.07,0.72,-0.73
8.249,0.59,2.41,-1.17
8.264,3.10,5.15,-1.02
8.265,5.06,4.95,-3.55
8.300,5.45,1.33,-3.72
8.302,7.08,-2.53,-3.01
8.303,6.19,-4.69,-4.30
8.304,4.32,-6.60,-4.03
8.323,2.83,-6.63,-3.68
8.324,1.32,-4.11,-2.57
8.345,1.05,-2.79,-0.47
8.348,2.42,-3.94,-0.04
8.355,4.09,-4.63,-0.48
8.363,4.50,-4.97,-0.68
8.383,4.61,-3.97,-1.27
8.384,4.61,-0.12,0.60
8.396,4.63,2.71,-0.18
8.397,2.74,4.34,-0.54
8.416,1.88,5.04,-1.55
8.417,0.43,5.82,-2.13
8.443,-0.54,7.74,-2.93
8.445,-0.90,8.15,-2.00
8.490,-0.91,9.02,-2.39
8.493,-1.22,8.60,-2.61
8.494,-1.04,8.39,-2.50
8.495,-1.36,7.94,-2.94
8.512,-0.03,8.88,-3.34
8.513,1.71,9.32,-2.37
8.521,2.90,7.94,-2.72
8.523,3.94,6.62,-2.49
8.545,3.72,5.23,-0.99
8.547,3.26,4.40,-0.59
8.594,2.56,3.71,0.15
8.595,1.23,2.43,1.04
8.596,-0.79,0.93,1.41
8.596,-2.30,0.11,1.70
8.597,-2.53,-0.88,1.77
8.597,-1.93,-2.06,4.08
8.615,-0.63,-4.44,7.23
8.616,0.12,-8.04,10.96
8.663,-4.83,-11.78,11.97
8.664,-5.64,-15.40,11.31
8.670,-6.69,-12.25,8.32
8.671,-6.23,-8.76,5.19
8.698,-5.16,-4.65,3.64
8.701,-6.51,-2.81,3.66
8.703,-4.51,1.18,2.61
8.704,-3.75,4.79,3.39
8.732,-3.08,5.27,4.18
8.733,-0.28,3.12,-4.17
8.738,0.97,-4.83,-5.47
8.740,2.87,-14.97,-5.93
8.767,9.67,-18.71,-18.52
8.768,14.72,-14.23,-11.01
8.810,18.37,-0.52,15.38
8.812,11.77,6.92,2.82
8.813,7.96,6.32,-2.62
8.815,2.43,6.21,-9.14
8.816,-1.24,5.59,-13.76
8.817,-1.06,3.57,-10.55
8.838,0.84,2.43,-6.26
8.839,1.82,1.54,-4.66
8.882,1.58,1.85,-4.87
8.884,0.46,2.53,-5.38
8.885,-1.39,1.76,-5.57
8.886,-2.69,0.98,-3.92
8.917,-3.75,1.04,-1.68
8.918,-5.12,0.44,2.92
8.919,-6.43,0.32,6.68
8.920,-8.79,0.80,7.84
8.936,-9.32,2.29,5.20
8.938,-8.28,2.92,3.44
8.982,-6.27,4.04,2.20
8.984,-3.97,4.51,1.73
8.985,-1.90,3.63,2.72
8.986,-1.61,2.45,3.15
8.995,-1.48,1.25,3.22
9.010,-0.57,0.99,3.59
9.039,-0.24,0.93,3.05
9.040,0.99,0.68,2.93
9.041,0.98,0.09,1.95
9.041,1.10,0.53,0.81
9.065,0.93,-0.09,0.14
9.066,0.85,-1.49,0.57
9.096,1.13,-1.57,0.75
9.097,-0.05,-2.45,1.78
9.098,-1.45,-2.58,3.11
9.098,-1.96,-2.84,2.74
9.146,-2.63,-3.31,2.99
9.148,-3.53,-4.14,2.13
9.148,-4.78,-4.16,0.40
9.149,-6.04,-3.67,-0.35
9.164,-5.99,-3.10,-0.04
9.165,-5.31,-2.77,0.50
9.185,-4.90,-2.84,1.95
9.186,-4.25,-2.69,2.63
9.235,-3.69,-2.38,2.29
9.236,-3.08,-1.86,1.86
9.237,-2.27,-0.99,1.63
9.237,-1.76,0.08,1.06
9.243,-0.37,0.62,-0.30
9.244,1.35,1.13,-2.74
9.264,5.18,4.94,-2.92
9.265,7.23,4.70,-1.64
9.323,7.24,1.97,-1.41
9.324,8.75,-1.75,-3.02
9.325,8.46,-4.48,-5.22
9.326,6.44,-7.06,-5.99
9.327,2.96,-7.90,-3.86
9.327,2.16,-6.05,-1.27
9.343,2.35,-4.41,1.09
9.345,4.03,-5.00,-0.12
9.376,5.24,-5.18,-1.05
9.379,5.04,-4.36,-0.79
9.380,4.65,-3.32,-0.33
9.381,4.92,0.45,-0.24
9.430,5.15,3.78,-0.42
9.431,2.64,4.05,0.03
9.432,1.38,3.99,-1.80
9.433,-0.07,7.41,-1.70
9.435,-0.95,7.75,-1.53
9.437,-1.64,7.65,-2.38
9.456,-1.78,7.93,-1.61
9.457,-1.04,7.63,-1.59
9.488,-0.94,7.47,-2.38
9.493,0.16,8.63,-3.12
9.502,0.83,9.25,-3.54
9.503,2.43,9.32,-2.66
9.522,2.85,8.80,-2.90
9.523,2.78,8.42,-2.25
9.535,2.92,7.65,-1.78
9.536,3.54,7.22,-0.41
9.562,2.32,5.47,0.18
9.570,0.92,4.11,0.81
9.606,-0.59,2.57,1.31
9.607,-2.14,1.67,1.17
9.608,-3.68,0.85,1.25
9.609,-4.65,-0.44,2.09
9.623,-4.07,-2.41,3.98
9.624,-3.42,-7.90,7.94
9.645,-4.47,-13.41,12.22
9.646,-5.42,-17.29,15.24
9.662,-7.00,-16.03,11.80
9.664,-5.58,-11.03,7.28
9.740,-3.67,-5.19,2.61
9.742,-5.06,-3.61,3.16
9.743,-3.53,0.22,1.73
9.744,-2.25,4.27,2.43
9.745,-0.77,6.19,2.88
9.745,3.80,4.07,-3.50
9.746,2.80,-3.42,-4.84
9.747,4.19,-14.78,-6.15
9.762,7.61,-22.13,-13.17
9.764,11.76,-16.07,-12.29
9.782,12.23,-2.34,5.88
9.784,7.34,7.28,1.87
9.847,7.24,7.30,-0.43
9.849,2.92,6.42,-6.22
9.850,-0.75,5.69,-12.60
9.851,-1.48,4.81,-12.42
9.853,-0.74,2.55,-8.01
9.854,1.08,1.31,-4.33
9.863,1.71,1.70,-3.21
9.864,0.92,2.27,-2.51
9.882,-0.22,2.04,-2.06
9.883,-2.11,1.17,-0.83
9.935,-3.42,0.79,0.57
9.936,-4.36,1.33,2.63
9.937,-4.92,2.33,4.44
9.938,-4.87,2.52,4.28
9.939,-4.77,2.91,3.92
9.939,-6.73,1.41,2.94
9.963,-8.23,0.77,1.24
9.964,-5.99,1.24,2.16
9.994,-3.39,2.44,3.20
10.002,-2.05,2.38,2.38
10.005,-0.58,1.59,2.94
10.017,0.07,1.08,3.31
10.033,-0.01,0.68,2.84
10.033,0.06,0.39,2.20
10.059,0.80,1.02,1.54
10.061,0.61,1.16,0.24
10.061,0.18,1.15,0.53
10.062,-0.19,0.42,0.97
10.077,-0.10,0.30,1.73
10.086,-0.18,-0.63,1.73
10.096,-0.14,-1.61,1.58
10.097,-0.25,-2.30,2.10
10.129,-0.91,-3.62,2.54
10.130,-2.04,-4.50,1.74
10.180,-3.91,-4.60,0.76
10.181,-5.74,-5.04,0.24
10.182,-6.80,-4.74,1.45
10.184,-7.16,-3.73,2.05
10.185,-6.83,-3.03,3.29
10.186,-5.67,-2.79,3.68
10.198,-4.22,-3.01,3.06
10.199,-2.49,-2.53,2.42
10.223,-1.28,-2.30,1.16
10.224,-1.02,-2.50,-0.97
10.235,0.17,0.12,-2.53
10.272,3.12,0.56,-3.17
10.273,5.28,1.90,-3.55
10.274,6.27,0.30,-1.21
10.285,7.33,-1.87,-0.81
10.286,7.91,-3.93,-3.26
10.298,6.83,-6.48,-5.85
10.299,6.35,-7.32,-6.41
10.319,6.40,-5.42,-4.63
10.323,5.90,-3.18,-1.95
10.365,4.86,-2.44,0.67
10.366,4.78,-1.97,0.44
10.367,5.04,-0.34,-0.20
10.368,4.48,0.86,-0.41
10.385,3.55,2.14,-0.14
10.386,2.30,4.70,-0.53
10.395,0.41,5.14,-2.31
10.396,-0.31,6.88,-3.91
10.415,-1.64,7.66,-2.14
10.416,-1.63,8.59,-2.11
10.471,-2.22,8.20,-2.93
10.472,-2.33,8.29,-1.69
10.474,-2.77,7.78,-1.53
10.476,-2.31,7.64,-2.25
10.477,0.27,8.95,-3.45
10.479,3.20,9.32,-3.27
10.495,4.51,8.90,-2.60
10.496,3.23,6.94,-1.79
10.515,3.80,5.72,-1.21
10.517,3.21,4.23,-0.18
10.571,2.32,3.08,-0.14
10.573,1.51,2.28,0.19
10.573,0.11,1.61,0.47
10.574,-1.07,1.47,0.87
10.576,-1.74,1.35,1.64
10.577,-1.89,0.69,2.84
10.595,-2.31,-0.13,5.04
10.596,-1.74,-1.55,7.86
10.619,-3.45,-4.90,10.32
10.620,-8.01,-11.71,11.67
10.644,-8.01,-14.42,10.15
10.646,-6.14,-14.49,8.63
10.660,-3.33,-11.29,5.04
10.661,-6.72,-8.83,6.23
10.711,-7.05,-4.68,4.00
10.712,-7.25,0.40,3.30
10.715,-6.51,4.36,1.80
10.716,-2.59,7.63,-1.98
10.717,7.81,6.46,-6.73
10.718,12.01,-3.37,-6.45
10.735,8.96,-17.79,-10.86
10.736,12.45,-27.81,-11.13
10.757,12.95,-23.22,1.72
10.759,7.90,-0.74,-1.11
10.806,7.58,7.58,-2.75
10.808,7.81,7.84,-2.74
10.808,2.80,7.41,-9.10
10.809,-0.75,6.08,-14.47
10.850,0.52,3.61,-11.08
10.856,2.00,1.93,-5.36
10.857,2.19,2.38,-3.31
10.858,1.03,2.40,-4.22
10.922,0.11,3.24,-3.38
10.923,-1.31,3.68,-0.71
10.924,-3.03,2.98,2.00
10.925,-4.17,1.93,3.77
10.926,-5.15,2.93,5.21
10.927,-6.03,3.87,4.73
10.928,-6.41,4.41,4.33
10.929,-5.20,4.86,3.81
10.939,-5.06,4.60,2.73
10.940,-4.99,2.65,2.26
10.959,-5.06,0.75,2.59
10.960,-7.06,-0.03,2.22
10.978,-6.49,0.34,1.79
10.979,-5.12,1.06,1.12
11.043,-4.15,0.46,0.71
11.048,-1.85,-0.37,1.37
11.049,-0.35,0.40,2.32
11.057,0.88,0.98,2.36
11.058,1.31,0.13,1.56
11.059,1.21,-0.52,1.12
11.062,0.85,-0.74,1.20
11.063,0.57,-0.86,1.05
11.117,0.47,-0.79,1.51
11.118,0.31,-1.19,1.80
11.119,-0.20,-1.66,2.18
11.120,-0.89,-2.17,2.89
11.124,-1.24,-2.68,2.46
11.126,-2.14,-3.33,1.77
11.139,-3.33,-4.03,1.03
11.140,-3.80,-3.93,0.47
11.155,-4.17,-3.18,0.68
11.157,-4.35,-3.05,1.87
11.243,-4.64,-3.22,3.07
11.244,-4.43,-3.22,3.30
11.245,-3.05,-2.95,2.26
11.246,-2.42,-2.69,1.24
11.246,-2.33,-2.61,-0.71
11.247,-1.79,-1.44,-2.94
11.247,0.06,0.24,-3.64
11.248,1.79,1.31,-3.40
11.263,4.81,2.96,-1.24
11.264,5.71,1.96,-0.76
11.289,6.15,-1.42,-2.03
11.290,6.83,-3.55,-2.95
11.350,6.51,-6.17,-4.24
11.352,6.16,-6.84,-4.75
11.353,6.08,-4.37,-3.61
11.354,5.73,-2.39,-1.01
11.355,5.10,-2.14,0.60
11.358,4.88,-2.65,0.39
11.433,5.01,-2.08,0.01
11.434,5.04,-0.54,-0.08
11.435,4.41,1.51,-0.19
11.436,2.84,3.56,-1.29
11.436,1.54,3.90,-1.04
11.437,0.23,5.10,-1.00
11.438,-0.90,6.69,-2.61
11.439,-1.61,7.16,-1.20
11.445,-2.00,6.95,-1.54
11.447,-1.81,6.80,-1.17
11.464,-0.76,7.23,-1.57
11.465,-0.27,7.28,-2.23
11.532,-0.21,7.43,-2.36
11.533,-0.12,7.90,-2.43
11.534,0.96,8.09,-2.54
11.535,1.35,7.72,-2.10
11.536,1.27,6.05,-1.94
11.536,2.56,5.70,-1.69
11.544,2.89,5.11,-0.89
11.546,2.74,4.45,-0.45
11.573,1.76,3.50,0.19
11.581,0.55,2.55,0.95
11.582,-0.60,1.53,1.48
11.583,-2.15,0.82,2.09
11.655,-3.38,-0.30,3.46
11.657,-4.41,-1.94,5.36
11.658,-5.15,-6.36,8.30
11.659,-4.93,-8.70,8.78
11.660,-4.95,-11.92,10.04
11.662,-5.28,-11.95,9.39
11.663,-3.69,-10.03,7.54
11.664,-4.19,-6.75,5.77
11.689,-6.39,-5.02,4.09
11.690,-4.38,-1.00,3.07
11.700,-2.49,2.42,2.72
11.702,-2.34,4.74,3.40
11.795,-1.42,5.20,2.95
11.796,2.33,2.60,-3.96
11.797,4.44,-5.95,-5.91
11.798,5.89,-16.80,-7.79
11.800,9.42,-24.67,-15.00
11.801,14.09,-15.80,-5.82
11.802,12.91,-0.63,6.49
11.804,9.18,7.06,-0.37
11.804,7.05,6.28,-2.48
11.805,2.50,6.05,-8.66
11.816,-1.41,4.80,-13.63
11.817,-1.87,3.09,-12.84
11.846,0.63,0.80,-6.91
11.847,1.79,0.53,-3.44
11.938,1.11,2.19,-3.20
11.939,0.06,2.67,-2.75
11.940,-0.81,2.69,-1.32
11.941,-2.73,1.92,0.63
11.942,-4.33,1.97,2.05
11.943,-4.98,2.17,3.57
11.944,-5.05,2.72,4.14
11.945,-5.64,3.27,4.20
11.945,-5.61,3.78,3.79
11.946,-5.84,4.00,2.99
11.963,-5.20,3.21,1.84
11.964,-4.86,2.31,1.32
11.985,-3.09,1.84,1.43
11.987,-2.35,1.20,1.44
12.056,-2.23,0.07,2.02
12.063,-1.34,-0.98,3.01
12.064,-1.39,-0.15,3.41
12.065,-0.71,1.21,3.11
12.066,0.32,1.66,2.29
12.066,0.73,1.17,1.35
12.067,0.72,0.89,1.07
12.068,0.70,0.82,0.81
12.075,0.20,-0.19,0.81
12.077,-0.19,-1.48,0.84
12.109,-0.28,-1.77,0.96
12.110,-0.53,-2.51,1.01
12.122,-0.83,-3.39,1.61
12.123,-1.00,-4.09,1.70
12.185,-2.19,-5.07,1.88
12.186,-4.63,-5.41,2.20
12.187,-5.45,-5.06,2.07
12.188,-5.46,-4.35,2.53
12.191,-4.82,-3.92,2.52
12.192,-4.84,-3.60,1.44
12.199,-4.37,-3.20,0.96
12.201,-2.68,-2.42,1.52
12.223,-2.02,-1.50,2.12
12.225,-1.54,-0.66,1.80
12.326,-1.15,0.14,1.17
12.328,-0.82,0.68,-3.19
12.329,1.86,3.01,-5.50
12.329,5.08,5.34,-4.11
12.330,7.09,2.87,-2.78
12.331,6.67,-2.16,-3.31
12.337,6.63,-4.44,-4.36
12.339,5.23,-7.78,-4.53
12.339,4.16,-7.73,-4.00
12.340,4.16,-5.49,-2.56
12.349,4.61,-4.44,-1.36
12.353,4.73,-4.59,-0.44
12.375,5.40,-3.40,1.30
12.378,5.08,-1.45,1.89
12.379,4.34,0.17,1.01
12.380,4.70,2.17,-0.85
12.447,5.00,3.98,-2.12
12.449,2.46,5.60,-1.37
12.449,0.30,5.82,-0.84
12.450,-0.59,5.87,-2.74
12.451,-0.95,7.84,-1.40
12.451,-0.97,7.87,-1.04
12.466,-1.45,8.20,-1.80
12.467,-1.36,8.07,-1.67
12.524,-1.43,8.07,-2.11
12.526,-0.43,7.85,-2.57
12.527,-0.48,7.47,-2.27
12.528,1.31,8.29,-2.30
12.531,1.50,7.33,-1.18
12.533,2.41,6.64,-0.49
12.564,2.50,5.84,-1.01
12.567,2.77,4.88,-0.73
12.567,2.27,3.95,-0.28
12.568,0.90,2.87,0.63
12.576,-0.54,1.95,1.28
12.580,-2.35,1.10,1.65
12.632,-3.71,0.00,1.98
12.633,-4.66,-0.67,3.95
12.634,-5.37,-2.83,5.82
12.634,-5.34,-6.88,9.12
12.639,-4.57,-9.58,10.36
12.641,-3.80,-13.05,10.63
12.673,-2.36,-12.21,7.50
12.673,-3.17,-9.57,7.86
12.727,-4.47,-7.58,5.58
12.728,-4.72,-3.46,3.71
12.729,-4.52,0.54,2.64
12.730,-3.27,4.19,1.41
12.730,-3.69,6.66,2.55
12.731,-2.63,6.74,1.43
12.746,2.01,3.03,-8.09
12.747,5.12,-8.23,-6.30
12.813,8.61,-20.26,-11.89
12.815,13.40,-27.37,-13.30
12.817,18.39,-13.94,2.57
12.818,10.70,3.99,2.18
12.820,9.56,8.60,-3.98
12.821,6.49,8.24,-3.70
12.822,-0.57,6.86,-10.47
12.823,-3.58,4.26,-15.77
12.836,-1.29,1.85,-11.37
12.837,1.72,-0.17,-4.66
12.865,2.60,-1.21,-3.29
12.866,2.03,-0.34,-3.34
12.875,0.93,0.99,-2.04
12.876,-0.85,1.30,-0.68
12.937,-3.44,1.52,0.59
12.942,-5.67,1.69,2.03
12.943,-6.26,2.34,4.16
12.944,-6.63,3.15,3.64
12.944,-7.30,3.32,3.23
12.953,-7.00,3.41,3.28
13.034,-4.76,3.65,3.46
13.036,-3.66,2.13,3.29
13.037,-2.64,1.88,2.14
13.037,-3.04,1.93,1.67
13.038,-2.65,1.56,2.04
13.044,-2.48,0.34,2.52
13.045,-1.83,-0.24,2.38
13.046,-1.59,-0.57,2.27
13.064,-1.02,0.73,2.95
13.065,-0.49,1.49,2.63
13.075,1.15,2.14,2.00
13.076,1.21,1.48,2.02
13.085,1.00,0.92,2.28
13.086,0.50,0.18,2.06
13.102,0.28,-0.05,1.72
13.190,0.30,-0.11,1.46
13.196,0.17,-1.12,1.49
13.197,-0.84,-3.01,2.19
13.197,-1.38,-4.49,2.52
13.198,-2.19,-5.52,2.45
13.202,-3.82,-6.16,2.61
13.203,-5.42,-5.74,2.01
13.204,-6.51,-4.55,1.59
13.210,-6.30,-3.35,1.22
13.210,-5.59,-2.63,1.13
13.211,-4.45,-2.19,1.19
13.269,-3.19,-1.83,1.97
13.270,-2.65,-1.93,2.31
13.274,-1.99,-1.63,0.64
13.275,-1.81,-1.30,-2.90
13.276,-0.02,0.44,-5.34
13.276,1.66,0.24,-4.31
13.282,3.55,-0.74,-2.81
13.283,5.11,-0.64,-2.96
13.302,6.20,-3.14,-4.32
13.306,6.85,-6.43,-4.60
13.382,6.81,-5.80,-4.96
13.383,6.77,-2.54,-4.93
13.384,6.82,-0.83,-2.42
13.393,7.22,-1.45,-0.58
13.394,6.94,-2.14,0.72
13.395,6.00,-1.44,0.83
13.396,5.93,-0.65,0.92
13.396,5.12,-0.18,0.41
13.397,3.69,1.28,-2.33
13.398,2.04,3.17,-0.43
13.452,0.19,3.84,0.95
13.454,0.31,4.52,0.65
13.456,-0.65,6.03,-1.91
13.457,0.56,7.51,-0.92
13.458,-0.25,6.66,-0.48
13.458,-0.57,7.22,-2.17
13.496,-0.57,7.60,-2.39
13.496,0.79,9.49,-4.40
13.497,-0.10,9.67,-3.68
13.498,-0.04,9.52,-2.37
13.551,1.21,9.64,-1.78
13.553,2.44,9.31,-1.55
13.553,3.18,8.45,-1.60
13.554,2.84,7.68,-1.20
13.562,1.84,6.60,-0.77
13.569,0.26,5.16,0.00
13.643,-1.79,3.55,0.86
13.644,-3.57,2.05,1.63
13.645,-5.28,0.58,2.11
13.646,-7.06,-0.40,2.81
13.647,-8.32,-2.82,4.84
13.648,-7.53,-7.51,7.99
13.652,-5.75,-10.65,10.57
13.653,-4.65,-13.98,10.77
13.664,-3.58,-13.95,8.95
13.665,-3.08,-12.52,7.97
13.685,-2.37,-10.25,5.48
13.687,-1.88,-6.95,3.92
13.762,-1.37,-3.04,3.80
13.763,-0.89,1.18,2.40
13.763,-1.07,4.48,1.76
13.764,-1.67,6.16,2.13
13.764,1.17,7.24,-1.10
13.765,5.59,2.51,-5.43
13.773,4.25,-9.04,-4.44
13.774,6.12,-19.08,-13.83
13.873,12.86,-21.05,-16.09
13.874,14.55,-6.75,0.00
13.875,12.13,2.74,10.14
13.876,9.46,5.22,-0.46
13.878,4.64,5.98,-4.13
13.879,-1.71,6.69,-12.51
13.880,-2.10,3.71,-15.00
13.881,-0.79,1.51,-9.58
13.881,0.89,-0.11,-4.06
13.882,0.54,0.58,-4.48
13.888,-0.79,1.03,-5.03
13.890,-1.53,1.35,-4.09
13.902,-2.26,1.00,-2.39
13.903,-4.16,0.13,0.09
13.989,-5.46,0.02,4.10
13.991,-6.10,1.13,6.41
13.992,-5.69,3.67,5.24
13.993,-5.20,4.62,3.80
13.994,-5.33,4.82,3.39
13.995,-4.70,3.41,2.93
13.996,-3.31,2.27,2.69
13.996,-2.01,2.86,2.79
14.020,-2.40,3.00,2.99
14.038,-1.88,2.16,2.78
14.039,-1.81,0.48,3.06
14.040,-0.94,-0.47,2.66
14.049,-0.21,-0.38,2.41
14.050,0.62,-0.59,2.86
14.068,0.42,0.03,1.92
14.069,0.54,0.36,0.29
14.119,0.38,-0.73,-0.15
14.120,0.05,-0.89,-0.32
14.121,0.63,-0.62,0.08
14.122,1.24,-0.52,0.54
14.122,0.38,-1.14,2.20
14.123,-1.60,-2.35,2.65
14.227,-3.31,-3.21,2.17
14.228,-4.57,-4.04,2.11
14.229,-4.88,-4.25,1.93
14.230,-5.13,-4.12,1.01
14.231,-5.74,-3.67,0.90
14.232,-5.85,-2.94,1.55
14.237,-5.67,-2.64,1.84
14.238,-5.02,-2.74,1.39
14.239,-3.33,-2.69,2.25
14.240,-2.27,-2.52,2.16
14.241,-1.65,-2.10,1.18
14.242,-0.53,-1.37,1.66
14.266,-1.42,-0.44,-1.03
14.270,-0.50,1.23,-4.42
14.362,2.36,3.07,-4.27
14.364,4.33,3.03,-2.92
14.365,5.77,2.58,-0.58
14.372,6.26,-0.37,-0.94
14.373,6.61,-3.29,-2.46
14.374,6.89,-6.25,-3.84
14.375,6.70,-7.65,-3.73
14.386,6.55,-6.72,-2.63
14.387,7.05,-5.40,-1.47
14.387,7.10,-4.88,-0.35
14.388,7.53,-3.92,1.18
14.389,6.00,-2.10,0.65
14.454,5.07,-0.80,0.35
14.455,3.94,-0.33,-0.44
14.456,2.58,2.88,-0.54
14.456,0.11,3.87,-1.40
14.457,-0.96,4.87,-2.74
14.458,-1.63,5.14,-2.50
14.463,-1.81,6.56,-2.74
14.464,-1.28,7.03,-0.25
14.482,-0.90,7.63,-0.68
14.484,-1.16,7.93,-0.98
14.561,-1.05,7.80,-1.02
14.562,-1.17,7.99,-2.42
14.563,-0.49,8.54,-2.29
14.563,-0.01,9.29,-2.76
14.564,-0.23,8.27,-1.79
14.565,0.53,7.03,-1.59
14.565,1.69,6.97,-2.06
14.566,3.08,6.68,-1.81
14.662,2.81,6.08,-1.16
14.664,2.28,5.12,-0.87
14.664,1.22,4.05,-0.49
14.665,0.28,2.76,-0.06
14.666,-0.74,1.94,0.66
14.667,-1.95,1.37,1.36
14.667,-2.74,0.79,2.79
14.668,-2.82,-0.47,4.98
14.669,-3.47,-3.63,7.28
14.669,-3.37,-7.48,9.72
14.682,-3.50,-12.27,10.93
14.683,-3.59,-15.80,11.28
14.766,-4.26,-13.84,6.89
14.767,-5.39,-10.72,7.15
14.768,-5.12,-6.58,4.93
14.769,-4.13,-1.32,3.05
14.770,-2.93,2.62,2.41
14.772,-2.62,5.56,3.18
14.776,-0.96,6.10,3.55
14.777,3.02,1.50,-4.92
14.778,1.87,-10.83,-4.50
14.779,3.22,-22.46,-6.99
14.813,10.15,-24.11,-14.46
14.814,14.88,-7.03,-4.34
14.873,12.85,6.09,5.70
14.874,10.56,8.74,-2.21
14.875,5.71,7.81,-4.41
14.883,-0.78,5.68,-10.06
14.885,-1.86,3.75,-13.91
14.893,0.25,1.75,-10.71
14.894,2.67,0.15,-5.00
14.895,3.28,-0.24,-3.55
14.944,2.09,1.05,-3.84
14.946,0.18,1.61,-3.26
14.946,-1.88,0.97,-2.54
14.947,-3.81,0.48,-1.35
14.948,-5.04,0.65,0.85
14.948,-5.74,1.60,3.81
14.959,-5.73,3.42,5.01
14.961,-5.62,4.84,4.46
14.990,-5.79,4.77,3.32
14.998,-5.67,3.72,2.41
15.003,-4.29,2.69,1.75
15.023,-3.53,1.34,1.62
15.070,-3.69,0.08,3.08
15.071,-3.50,0.37,2.77
15.072,-2.77,0.75,2.63
15.073,-2.66,0.75,1.68
15.074,-1.80,0.11,1.37
15.075,-0.88,-0.67,2.14
15.080,-0.09,0.18,2.33
15.082,0.27,0.34,2.32
15.111,0.89,0.13,1.98
15.116,1.11,0.36,1.22
15.119,1.03,-0.14,2.23
15.120,0.53,-0.20,1.96
15.204,0.51,-0.63,1.42
15.205,0.65,-1.20,1.19
15.206,0.97,-1.38,0.75
15.207,-0.02,-2.42,1.05
15.207,-1.40,-3.32,1.28
15.208,-2.79,-3.76,1.02
15.209,-4.61,-3.63,1.79
15.214,-5.59,-3.11,2.23
15.215,-5.93,-2.49,1.94
15.216,-5.66,-2.21,1.61
15.231,-4.89,-2.39,1.01
15.233,-3.75,-3.23,0.66
15.256,-2.90,-3.24,1.90
15.257,-2.09,-2.82,2.39
15.344,-1.67,-2.38,1.64
15.345,-1.79,-2.46,0.45
15.345,-0.62,-1.13,-3.14
15.346,1.66,0.70,-4.89
15.347,3.20,1.31,-3.04
15.347,5.48,0.81,-1.05
15.348,5.50,-0.94,-2.52
15.349,5.63,-4.08,-3.78
15.356,5.50,-6.62,-3.98
15.357,4.91,-7.43,-3.70
15.459,5.06,-5.56,-3.46
15.460,5.80,-2.98,-1.93
15.461,5.82,-2.31,-0.63
15.468,6.36,-1.68,0.22
15.472,6.05,-0.70,0.86
15.473,5.53,0.83,0.50
15.473,5.57,2.06,0.32
15.474,3.45,3.45,-1.36
15.474,1.06,4.34,-2.04
15.475,-0.77,4.29,-1.48
15.500,-2.07,5.41,-2.36
15.502,-2.34,7.00,-3.23
15.594,-2.62,7.60,-1.63
15.595,-1.81,7.48,-1.62
15.596,-0.56,7.77,-1.99
15.597,0.45,8.28,-1.39
15.598,1.27,8.08,-2.43
15.609,0.96,8.01,-1.87
15.611,0.98,7.96,-2.22
15.613,0.60,7.69,-1.84
15.614,0.74,6.78,-1.24
15.614,1.98,6.37,-1.87
15.622,2.61,5.97,-1.55
15.623,2.46,5.06,-1.10
15.624,1.75,4.22,-0.47
15.625,0.84,2.76,0.24
15.690,-0.67,1.55,1.77
15.691,-1.84,0.57,2.49
15.692,-3.09,-0.17,3.44
15.693,-4.76,-1.18,4.63
15.693,-5.36,-3.09,5.66
15.694,-5.46,-6.92,7.66
15.695,-5.41,-11.49,8.90
15.696,-3.76,-13.58,11.18
15.726,-3.72,-11.49,8.85
15.727,-2.01,-7.71,4.96
15.804,-4.64,-6.63,3.90
15.806,-3.65,-3.90,2.10
15.806,-2.76,-0.63,1.64
15.809,-1.96,2.42,1.69
15.810,-1.22,5.54,2.48
15.810,-0.03,5.30,2.87
15.811,1.86,1.52,-2.88
15.812,1.30,-7.31,-2.73
15.816,2.94,-16.80,-6.20
15.817,8.94,-20.41,-12.73
15.881,14.47,-9.32,-9.96
15.883,16.85,2.21,7.04
15.884,12.65,8.52,2.45
15.885,7.82,6.22,-2.06
15.886,2.32,4.66,-7.85
15.887,-1.54,4.31,-13.07
15.910,-1.75,2.24,-12.03
15.911,0.11,-0.32,-6.57
16.027,1.90,-0.40,-3.59
16.036,1.52,1.24,-3.25
16.037,0.05,1.74,-2.93
16.038,-1.77,1.28,-2.23
16.039,-3.73,0.91,-0.68
16.040,-5.12,1.04,1.39
16.040,-5.39,1.38,3.24
16.041,-5.03,2.90,3.69
16.042,-5.10,3.34,3.63
16.060,-5.57,2.83,3.47
16.061,-6.10,2.23,2.52
16.062,-5.18,1.24,2.42
16.063,-4.13,1.12,2.04
16.064,-3.98,1.63,2.07
16.065,-3.11,2.08,1.95
16.066,-1.87,1.26,2.05
16.149,-1.74,0.43,1.65
16.151,-0.28,-0.25,2.32
16.152,-0.22,-0.39,2.01
16.153,-0.28,0.14,2.19
16.154,0.46,0.24,1.73
16.155,0.81,-0.28,1.18
16.156,1.03,-0.35,0.55
16.157,0.92,-0.17,1.49
16.158,0.37,-0.09,2.50
16.159,0.14,-0.79,2.51
16.175,0.47,-1.40,2.07
16.177,-0.17,-2.23,1.72
16.270,-1.66,-3.34,1.58
16.271,-2.66,-3.93,0.72
16.271,-3.89,-4.65,1.41
16.273,-4.68,-4.59,2.62
16.275,-5.91,-4.07,2.48
16.276,-6.69,-3.33,2.31
16.277,-6.52,-2.75,2.02
16.277,-5.49,-2.62,1.42
16.278,-3.74,-2.51,1.52
16.279,-2.21,-2.37,1.81
16.372,-1.75,-2.18,1.66
16.373,-1.17,-1.42,0.76
16.374,-0.92,-0.99,-1.20
16.375,0.11,1.07,-2.49
16.376,2.50,2.90,-2.47
16.377,4.87,3.61,-3.13
16.378,4.20,1.98,-1.66
16.378,6.04,-1.55,-1.09
16.386,7.44,-3.21,-2.66
16.387,7.34,-5.77,-5.69
16.400,6.69,-7.05,-6.57
16.401,6.58,-5.16,-5.27
16.429,6.19,-2.73,-1.86
16.430,5.53,-2.42,0.65
16.522,5.39,-2.84,1.90
16.523,5.12,-2.08,0.91
16.524,5.22,-1.34,-0.74
16.525,3.62,0.65,-1.38
16.536,0.96,2.11,-0.37
16.537,0.43,3.61,-0.73
16.538,-1.62,4.31,-1.94
16.538,-1.01,6.14,-2.83
16.552,-1.49,7.71,-1.96
16.553,-1.77,7.83,-1.74
16.554,-1.59,7.46,-1.03
16.555,-0.99,7.45,-1.66
16.625,-0.55,7.02,-3.39
16.627,-0.73,7.92,-3.17
16.627,0.66,8.78,-3.21
16.628,0.66,7.73,-1.68
16.629,2.11,6.88,-2.30
16.630,3.91,6.75,-2.43
16.631,4.39,5.70,-2.71
16.631,3.77,5.15,-1.99
16.647,2.70,4.48,-1.52
16.648,1.33,3.69,-0.95
16.754,0.51,2.97,-0.18
16.755,-0.94,2.44,1.02
16.756,-2.27,2.17,2.29
16.756,-3.33,2.00,3.83
16.757,-4.10,1.33,5.37
16.758,-4.87,-1.04,7.25
16.763,-4.14,-4.44,8.67
16.764,-4.15,-8.11,9.31
16.764,-3.18,-10.57,9.77
16.765,-3.29,-11.59,8.83
16.766,-2.58,-10.67,6.87
16.767,-4.88,-8.97,6.18
16.779,-4.66,-5.49,4.08
16.780,-3.85,-1.31,2.96
16.849,-3.41,2.11,2.86
16.851,-3.90,5.04,2.75
16.851,-1.81,6.39,0.89
16.852,3.59,3.61,-3.52
16.854,7.98,-4.96,-2.41
16.858,7.33,-17.75,-3.70
16.859,8.94,-25.43,-13.75
16.860,11.58,-15.40,-7.51
16.896,8.20,-0.38,-1.40
16.897,7.96,8.56,-2.63
16.898,8.70,8.05,-2.37
16.899,3.66,5.36,-6.07
16.971,-1.30,3.77,-10.96
16.973,-2.73,3.03,-11.56
16.974,-1.33,0.70,-7.50
16.975,0.28,-0.85,-3.67
16.977,0.17,-0.81,-2.55
16.978,-0.74,-0.30,-2.58
16.985,-2.19,0.67,-1.76
16.986,-3.35,0.95,0.17
17.060,-4.15,1.84,2.11
17.065,-4.67,2.55,3.39
17.066,-4.96,3.18,4.04
17.067,-5.30,3.83,3.73
17.067,-5.33,3.63,3.40
17.068,-5.11,3.38,3.23
17.069,-4.36,1.90,2.91
17.070,-3.63,0.82,2.25
17.076,-3.54,1.11,1.95
17.077,-2.76,1.87,1.02
17.194,-1.66,1.38,1.57
17.195,-0.71,1.04,2.07
17.196,-0.77,0.19,2.26
17.196,-1.25,0.77,2.05
17.197,-0.68,1.07,1.70
17.198,0.00,0.94,1.41
17.219,0.42,0.54,0.92
17.220,0.34,-0.03,2.04
17.220,-0.03,-0.50,1.59
17.221,-0.38,-1.35,1.48
17.221,-0.42,-1.80,1.46
17.222,-0.67,-2.21,2.09
17.222,-1.33,-2.71,2.47
17.223,-1.90,-3.48,2.09
17.328,-2.64,-4.17,2.02
17.329,-3.85,-4.69,2.45
17.330,-5.05,-4.31,2.18
17.330,-5.22,-3.81,1.53
17.331,-4.38,-3.58,1.49
17.336,-3.35,-3.42,0.98
17.337,-2.83,-3.12,0.11
17.337,-1.62,-2.63,0.66
17.338,-0.43,-2.11,1.52
17.339,0.07,-1.39,1.51
17.369,-0.01,-0.80,0.75
17.370,-0.29,-0.42,-0.69
17.371,0.13,1.12,-3.30
17.371,2.35,2.00,-4.40
17.386,4.99,3.29,-3.25
17.387,4.76,1.08,-0.41
17.470,5.82,-2.09,-0.89
17.471,6.81,-5.58,-3.61
17.472,6.15,-9.15,-5.70
17.473,5.71,-8.33,-5.72
17.474,5.43,-4.49,-4.03
17.474,4.36,-2.23,-0.69
17.475,4.01,-1.27,0.76
17.490,3.86,-1.08,1.09
17.490,3.75,0.17,0.37
17.491,3.89,1.99,-0.46
17.575,2.44,2.94,-1.55
17.576,0.95,4.76,-1.71
17.577,-0.43,5.06,-1.39
17.577,-1.64,5.50,-3.02
17.578,-1.37,6.42,-3.75
17.579,-0.99,7.04,-1.14
17.579,-1.07,7.24,-1.86
17.580,-0.61,7.12,-0.71
17.581,-0.18,6.76,-0.77
17.582,0.30,6.73,-1.60
17.595,0.77,7.46,-2.29
17.596,0.48,8.38,-2.71
17.693,0.62,7.65,-2.07
17.699,1.46,6.61,-1.26
17.700,2.85,5.67,-1.58
17.701,2.93,4.79,-1.78
17.701,3.33,3.78,-1.38
17.715,2.39,2.64,-1.07
17.716,1.46,1.67,-0.82
17.717,0.25,1.18,-0.32
17.717,-0.57,1.28,0.83
17.718,-1.27,1.26,2.40
17.719,-2.05,1.23,4.33
17.719,-2.81,1.09,5.68
17.800,-4.40,-0.42,7.24
17.801,-4.85,-3.24,8.38
17.802,-4.73,-5.78,9.24
17.805,-4.64,-8.54,9.98
17.806,-3.79,-9.71,8.30
17.807,-3.42,-8.64,6.84
17.808,-4.16,-8.91,5.30
17.809,-3.87,-5.59,3.65
17.817,-3.53,-1.72,2.56
17.818,-2.48,1.65,1.59
17.942,-2.15,5.32,2.25
17.943,0.20,5.34,0.71
17.944,3.17,0.93,-6.77
17.944,5.29,-10.99,-3.45
17.945,5.74,-23.58,-6.68
17.947,11.45,-24.32,-17.27
17.950,12.04,-8.46,-5.11
17.951,9.02,5.74,4.54
17.952,8.37,7.84,-0.43
17.953,3.89,6.13,-4.82
17.966,-0.35,4.96,-10.00
17.967,-2.30,2.26,-13.09
17.967,-1.37,0.99,-9.92
17.968,2.40,0.48,-3.44
18.044,2.11,0.95,-1.48
18.046,0.56,1.58,-1.18
18.046,-0.05,1.26,-1.04
18.054,-2.43,1.23,-0.10
18.055,-3.84,1.37,0.57
18.055,-4.63,1.48,1.71
18.063,-4.41,2.32,2.65
18.064,-4.23,4.46,3.73
18.065,-4.51,4.85,3.84
18.066,-4.69,4.55,3.35
18.076,-4.41,4.15,3.00
18.077,-3.63,2.21,1.12
18.154,-3.08,0.44,0.64
18.155,-3.71,0.32,0.76
18.156,-3.06,0.53,0.94
18.156,-2.93,0.06,0.86
18.157,-2.34,-0.55,1.02
18.158,-1.40,-0.71,2.33
18.176,-0.84,0.44,2.73
18.176,0.26,0.81,2.29
18.177,0.59,0.53,1.40
18.178,0.75,0.43,1.78
18.260,0.96,0.20,2.41
18.261,0.13,-0.58,2.41
18.261,-0.45,-0.97,2.14
18.262,0.19,-1.22,1.45
18.264,0.12,-1.82,1.33
18.265,-1.65,-3.73,1.91
18.266,-2.46,-4.13,1.45
18.266,-4.48,-4.95,2.13
18.276,-5.38,-4.83,3.39
18.277,-6.14,-4.21,3.33
18.295,-5.47,-3.44,2.65
18.296,-4.79,-3.10,1.87
18.364,-4.92,-2.75,1.10
18.365,-3.88,-2.21,1.10
18.366,-3.11,-2.18,1.54
18.367,-1.79,-2.35,0.20
18.367,-0.82,-2.10,-1.84
18.368,0.77,-1.51,-3.55
18.480,2.20,-0.98,-4.48
18.482,3.50,0.25,-4.73
18.483,5.29,-0.55,-2.53
18.483,6.87,-0.67,0.79
18.484,7.79,-3.17,-1.57
18.486,8.03,-5.68,-2.99
18.487,8.31,-6.27,-4.36
18.488,8.28,-4.49,-3.80
18.489,7.67,-2.86,-2.05
18.491,6.93,-1.98,-0.42
18.499,5.05,-0.94,2.15
18.500,4.36,-0.09,2.41
18.501,3.95,1.09,1.14
18.502,3.18,1.82,-1.09
18.532,0.82,3.48,-2.25
18.534,-0.40,3.93,-0.90
18.545,-1.38,4.01,-1.85
18.546,-1.87,4.30,-3.18
18.609,-2.47,5.50,-1.76
18.610,-1.95,6.07,-1.42
18.611,-2.32,7.19,-2.30
18.611,-1.25,6.92,-2.31
18.612,-0.46,7.47,-3.14
18.613,0.97,8.62,-2.98
18.722,-0.39,8.42,-2.37
18.723,-0.08,8.22,-2.42
18.724,-0.03,7.05,-2.15
18.724,1.37,6.75,-2.57
18.725,3.20,6.74,-3.10
18.726,4.07,6.60,-2.52
18.727,3.71,5.69,-1.66
18.727,2.83,4.91,-1.20
18.728,2.07,3.90,-0.96
18.729,1.35,3.21,-0.49
18.729,-0.17,2.47,0.58
18.730,-1.66,2.20,2.06
18.752,-3.42,1.97,3.69
18.753,-4.03,1.30,4.42
18.753,-4.70,-0.37,6.11
18.754,-4.37,-4.21,8.74
18.851,-3.91,-7.31,9.54
18.859,-3.95,-11.15,11.11
18.860,-3.67,-13.07,9.97
18.861,-3.50,-11.85,8.00
18.862,-4.55,-9.84,6.01
18.863,-4.54,-6.08,4.09
18.864,-3.77,-0.47,3.13
18.864,-2.96,2.34,2.77
18.865,-1.65,4.82,4.09
18.865,2.31,2.04,0.10
18.971,1.19,-6.64,-6.37
18.973,1.79,-20.86,-4.18
18.974,6.73,-26.68,-12.12
18.975,10.66,-13.32,-10.98
18.976,11.29,4.97,2.01
18.977,12.21,10.29,3.81
18.978,9.30,8.06,-1.64
18.980,1.84,5.72,-8.43
18.981,-1.18,3.73,-14.66
18.984,-0.55,1.66,-12.53
18.996,1.90,1.03,-7.10
18.997,2.63,0.68,-3.35
18.998,1.33,1.24,-3.19
19.010,-0.04,1.94,-3.13
19.033,-0.98,2.02,-2.21
19.034,-2.86,1.61,-0.67
19.035,-4.46,1.59,1.86
19.044,-5.21,1.97,5.03
19.122,-5.76,2.63,5.79
19.124,-6.04,4.06,3.97
19.124,-5.87,4.21,3.37
19.126,-4.68,3.98,2.33
19.126,-3.74,2.26,2.03
19.127,-3.86,0.80,2.01
19.127,-4.15,0.83,1.86
19.128,-3.65,1.46,1.43
19.136,-2.54,1.49,1.28
19.137,-2.62,0.44,1.78
19.226,-1.68,-0.44,2.10
19.227,-0.44,-0.72,2.16
19.228,0.07,-0.55,1.87
19.232,0.87,-0.61,1.63
19.233,1.04,-0.72,0.77
19.235,0.60,-0.10,0.81
19.237,0.25,-0.79,1.66
19.237,-0.49,-1.50,2.02
19.255,-0.64,-2.05,1.38
19.256,-0.12,-2.19,1.28
19.262,-0.56,-2.56,1.61
19.263,-1.27,-3.05,1.54
19.365,-2.57,-3.64,1.20
19.367,-3.57,-3.72,2.27
19.368,-3.88,-3.72,3.06
19.369,-3.73,-3.47,3.23
19.369,-3.42,-2.97,2.95
19.370,-3.50,-2.81,1.05
19.371,-3.90,-2.23,-0.71
19.372,-4.09,-2.06,-0.64
19.373,-3.12,-1.80,0.54
19.373,-1.20,-1.22,1.39
19.396,-0.46,-0.55,1.46
19.397,-0.16,0.00,0.11
19.470,0.33,1.21,-1.69
19.471,2.70,4.07,-2.68
19.472,3.93,4.88,-3.92
19.473,4.46,2.96,-1.59
19.473,6.65,-1.34,-1.06
19.474,6.99,-3.38,-1.37
19.475,6.18,-6.28,-3.48
19.476,4.91,-8.22,-5.30
19.479,3.90,-7.67,-5.29
19.481,3.71,-5.36,-3.88
19.506,3.87,-5.46,-0.73
19.507,4.22,-5.73,2.07
19.514,4.59,-4.45,2.80
19.515,4.68,-2.15,0.81
19.601,4.95,0.19,-0.24
19.603,2.33,2.01,1.35
19.604,0.27,2.31,-1.65
19.604,-0.45,4.08,-1.95
19.605,-0.58,4.79,-2.86
19.606,-2.00,6.13,-3.04
19.607,-1.48,6.78,-2.16
19.608,-1.13,6.98,-0.97
19.612,-0.77,7.92,-2.06
19.613,-0.10,8.63,-5.10
19.711,-1.52,8.96,-4.49
19.712,-1.03,9.51,-2.34
19.713,0.79,8.60,-3.51
19.714,2.46,8.02,-3.21
19.715,4.22,7.35,-2.75
19.716,5.13,6.57,-3.64
19.717,4.40,5.95,-2.81
19.717,3.41,4.92,-2.37
19.722,2.37,3.61,-1.91
19.723,1.44,3.06,-1.42
19.752,1.14,2.59,-0.93
19.753,1.11,2.46,-0.05
19.753,0.80,2.61,1.00
19.754,0.19,2.55,2.00
19.854,-0.97,2.20,3.15
19.855,-2.15,1.71,4.57
19.856,-3.17,1.69,5.55
19.856,-3.74,0.89,6.73
19.857,-5.12,-0.83,8.15
19.858,-6.15,-2.83,9.13
19.868,-5.79,-5.16,9.23
19.882,-4.90,-7.98,9.45
19.883,-3.80,-12.26,8.49
19.884,-3.07,-11.89,7.20
19.885,-3.33,-10.34,6.19
19.885,-4.37,-5.91,4.83
19.985,-4.25,-1.63,4.22
19.986,-1.22,1.39,4.22
19.987,6.09,0.09,-0.79
19.988,6.94,-8.18,-4.29
19.989,4.89,-21.18,-1.69
19.990,7.49,-24.98,-7.87
19.991,6.35,-16.52,-5.84
19.992,-1.98,-3.00,-6.33
19.993,1.04,4.58,-9.01
19.994,8.72,8.77,-5.42
19.996,6.61,8.84,-6.12
20.004,0.97,7.18,-8.86
20.022,-0.95,5.36,-10.15
20.023,-0.66,3.59,-10.06
20.038,0.99,3.78,-7.57
20.039,0.86,4.64,-4.25
20.118,0.13,4.81,-1.45
20.119,-0.41,3.46,1.35
20.120,-1.15,2.71,4.75
20.121,-1.92,2.12,4.98
20.121,-2.76,2.27,3.19
20.124,-2.93,3.19,3.11
20.124,-3.69,2.69,4.08
20.125,-4.39,2.21,3.71
20.240,-4.16,2.92,3.58
20.241,-3.20,2.11,2.79
20.242,-3.15,1.35,2.05
20.243,-3.86,1.56,1.57
20.246,-3.80,1.94,1.32
20.247,-3.19,1.81,0.95
20.248,-3.29,0.59,0.41
20.249,-2.03,-0.44,0.48
20.260,-2.11,-0.66,-0.21
20.260,-1.49,-0.94,0.20
20.261,-0.07,-0.73,0.25
20.261,0.61,-1.06,0.46
20.262,0.88,-1.41,1.42
20.263,1.01,-1.67,2.45
20.341,0.86,-2.76,3.11
20.342,1.15,-3.03,3.23
20.343,0.49,-2.99,2.40
20.344,-0.41,-2.73,1.60
20.344,-0.95,-2.61,0.12
20.345,-1.03,-3.57,0.90
20.346,-1.78,-3.76,1.56
20.346,-2.97,-3.71,1.38
20.353,-4.14,-3.55,1.77
20.355,-4.50,-3.06,2.43
20.389,-4.41,-2.42,2.79
20.390,-4.46,-1.93,1.51
20.470,-5.26,-2.11,0.31
20.472,-4.64,-2.41,0.17
20.473,-2.76,-2.49,0.62
20.473,-1.90,-2.17,0.93
20.474,-1.33,-2.22,0.52
20.476,-0.19,-1.55,-0.04
20.477,-0.07,-0.17,-2.03
20.478,0.55,1.67,-3.77
20.482,2.24,2.19,-3.21
20.483,4.03,3.91,-0.37
20.586,4.94,3.35,0.00
20.587,5.91,-0.55,-1.44
20.588,6.64,-3.57,-3.11
20.592,6.14,-5.73,-5.78
20.592,5.49,-5.76,-6.09
20.593,5.52,-3.93,-3.32
20.594,5.73,-3.08,-0.82
20.595,5.52,-3.19,1.16
20.596,4.82,-3.01,2.39
20.597,4.17,-2.45,1.32
20.609,4.10,-0.51,-0.64
20.610,2.44,0.32,-1.26
20.732,0.80,2.09,-0.49
20.734,-0.07,3.46,-1.51
20.734,-1.00,4.02,-1.14
20.735,-1.30,6.69,-4.86
20.736,-1.60,7.30,-2.66
20.736,-1.80,6.49,-1.96
20.737,-1.31,6.24,-1.18
20.737,-1.57,5.84,-2.07
20.738,-0.01,8.04,-4.22
20.739,0.54,7.85,-3.04
20.739,1.23,7.73,-1.87
20.740,1.89,6.83,-2.41
20.851,3.13,6.68,-1.99
20.852,3.73,6.78,-2.50
20.853,4.45,5.99,-2.37
20.854,3.61,5.66,-2.21
20.854,2.72,5.63,-2.36
20.855,2.22,5.18,-2.03
20.855,1.65,4.33,-1.14
20.856,1.40,3.51,-0.23
20.857,0.89,2.98,1.01
20.858,0.38,2.61,1.84
20.858,-0.30,2.32,2.46
20.859,-0.84,2.15,3.32
20.882,-2.09,1.48,4.58
20.883,-3.81,0.13,5.76
20.884,-5.49,-1.52,7.65
20.885,-7.30,-3.94,8.79
20.891,-7.19,-6.48,8.83
20.906,-7.22,-9.73,8.67
20.987,-5.18,-12.17,7.25
20.989,-3.39,-12.32,6.53
20.990,-2.33,-11.59,5.56
20.991,-1.70,-8.25,4.32
21.009,-0.94,-3.68,4.18
21.009,-1.28,0.37,3.84
21.010,-1.46,3.80,3.02
21.011,1.86,6.33,0.29
21.011,8.93,3.88,-2.87
21.033,7.51,-8.74,0.06
21.034,2.34,-22.77,-7.39
21.052,5.35,-27.63,-14.76
21.053,1.26,-12.42,-10.28
21.054,-0.86,-0.71,-4.39
21.104,4.55,6.88,0.01
21.106,10.77,10.63,1.46
21.107,7.06,10.43,-3.84
21.108,2.07,7.31,-8.38
21.108,-0.57,5.16,-11.09
21.109,-1.17,3.65,-8.97
21.134,0.63,2.37,-6.23
21.138,0.80,2.52,-4.15
21.138,0.64,1.64,-1.02
21.139,-0.69,-0.14,1.60
21.230,-2.40,0.16,2.12
21.231,-3.77,0.79,1.82
21.232,-4.54,1.34,3.27
21.233,-4.84,2.10,3.63
21.233,-4.21,2.96,2.85
21.234,-3.94,2.65,2.68
21.235,-4.04,2.01,3.65
21.236,-3.33,1.64,2.67
21.236,-3.05,1.07,1.73
21.237,-2.98,1.67,1.44
21.303,-2.64,2.21,1.15
21.304,-1.46,1.41,0.85
21.305,-0.80,0.89,0.97
21.306,-0.24,0.34,0.91
21.307,0.26,0.06,0.38
21.308,1.43,-0.06,0.75
21.313,1.38,0.20,0.92
21.314,0.43,-0.09,1.64
21.336,0.14,-1.19,2.24
21.337,-0.02,-1.53,2.87
21.405,-0.62,-1.54,3.05
21.416,-0.91,-1.40,2.57
21.417,-1.69,-1.91,1.75
21.417,-2.25,-2.66,1.49
21.418,-3.08,-3.21,0.74
21.419,-3.84,-3.35,1.13
21.419,-3.99,-3.59,2.86
21.420,-4.42,-4.10,3.68
21.485,-4.68,-4.19,3.34
21.486,-4.17,-3.49,2.37
21.488,-3.08,-2.98,1.73
21.489,-2.49,-2.73,0.82
21.490,-2.45,-2.66,0.11
21.491,-2.23,-2.59,-0.13
21.500,-1.30,-2.23,-0.07
21.502,-0.65,-2.08,0.18
21.623,-0.33,-1.67,0.59
21.624,-0.42,-1.34,0.39
21.624,-0.54,-0.78,-0.10
21.625,0.71,0.65,-1.28
21.626,2.33,3.13,-1.81
21.646,3.66,5.22,-1.14
21.647,3.46,3.75,-0.63
21.647,4.40,0.00,-0.01
21.648,6.37,-1.54,0.07
21.649,6.54,-3.06,-2.20
21.649,6.08,-4.47,-5.02
21.650,4.47,-4.44,-7.07
21.651,3.05,-2.57,-6.38
21.652,2.93,-2.01,-3.12
21.653,3.33,-2.88,-0.58
21.653,3.18,-4.11,1.53
21.703,3.82,-3.93,2.50
21.704,3.80,-1.81,1.25
21.705,2.61,-0.11,-1.04
21.706,1.34,2.11,-2.29
21.733,1.56,3.94,0.01
21.736,0.81,4.82,-4.22
21.737,-1.23,4.12,-2.58
21.737,-1.84,5.37,-1.93
21.801,-1.33,6.80,-1.82
21.803,-0.78,7.10,-0.99
21.803,-0.60,7.65,-0.89
21.804,-0.42,8.09,-3.45
21.805,-0.33,7.37,-2.38
21.806,-0.43,7.39,-2.78
21.813,-0.76,6.75,-1.76
21.814,0.72,6.09,-3.10
21.913,2.41,5.88,-3.47
21.917,3.32,5.65,-3.53
21.918,3.67,4.81,-2.61
21.919,3.04,4.39,-2.48
21.920,2.58,3.61,-2.29
21.920,1.93,3.06,-1.89
21.921,1.69,2.83,-0.68
21.922,1.17,2.79,0.56
21.923,0.22,2.74,2.17
21.924,-0.46,2.13,3.43
21.946,-0.63,1.96,4.62
21.946,-2.43,1.12,5.26
22.074,-4.38,-0.26,5.96
22.084,-5.09,-1.91,7.07
22.085,-4.97,-3.73,7.99
22.092,-3.65,-5.50,8.81
22.093,-3.43,-7.43,8.82
22.110,-3.09,-8.79,6.95
22.110,-3.51,-8.72,6.87
22.111,-3.44,-8.10,5.91
22.122,-2.79,-5.25,4.40
22.126,-2.37,-2.11,3.80
22.127,-2.30,0.39,2.71
22.127,-2.33,3.03,1.49
22.128,0.38,4.79,-1.63
22.128,7.92,1.59,-3.18
22.139,8.54,-11.02,1.08
22.142,2.54,-24.99,-10.06
22.143,4.98,-25.28,-15.66
22.144,3.52,-13.58,-7.59
22.145,2.54,1.66,-0.77
22.146,6.48,8.80,1.33
22.186,9.35,9.26,1.23
22.187,4.44,6.99,-6.13
22.188,0.60,4.91,-11.13
22.188,-0.17,3.57,-11.02
22.193,-0.05,1.89,-7.81
22.194,0.63,1.20,-4.83
22.222,0.16,1.33,-3.38
22.223,0.10,1.72,-1.61
22.312,-0.96,1.88,0.28
22.314,-2.80,2.35,1.94
22.315,-4.43,2.74,2.88
22.315,-5.13,2.77,3.73
22.316,-5.57,2.76,3.78
22.317,-6.02,3.54,3.93
22.318,-5.99,2.90,3.69
22.318,-5.20,1.89,3.71
22.319,-4.02,1.67,3.09
22.320,-3.99,1.03,2.42
22.425,-3.51,1.15,1.92
22.427,-2.76,1.35,1.41
22.427,-2.06,1.23,1.22
22.428,-1.05,0.93,1.32
22.430,-0.06,0.79,0.51
22.431,0.91,-0.23,0.51
22.431,1.04,0.33,-0.67
22.432,1.02,-0.15,-0.43
22.433,0.85,-1.26,0.08
22.434,0.78,-2.39,0.74
22.435,0.82,-3.16,1.73
22.435,1.57,-2.30,1.77
22.578,-4.26,-2.72,2.24
22.592,-4.52,-3.31,1.55
22.593,-3.59,-3.36,1.75
22.593,-3.28,-3.26,1.88
22.594,-3.68,-3.06,1.68
22.595,-3.85,-2.57,1.52
22.604,-4.14,-2.08,1.27
22.605,-3.97,-2.08,0.58
22.609,-3.35,-2.35,0.07
22.610,-1.76,-2.75,0.51
22.610,-0.32,-2.20,1.08
22.611,-0.38,-1.86,1.45
22.709,-1.11,-1.32,0.36
22.710,-1.07,0.17,-0.74
22.711,0.82,1.80,-1.15
22.711,3.58,4.51,-0.52
22.714,4.12,5.08,-0.71
22.715,4.55,1.75,-0.08
22.716,6.40,-1.38,-0.94
22.717,5.99,-3.40,-3.59
22.718,4.76,-5.70,-5.92
22.719,3.95,-7.28,-6.77
22.719,4.06,-5.68,-5.28
22.758,3.96,-3.95,-2.06
22.759,3.23,-3.53,1.10
22.760,3.19,-3.36,1.53
22.761,3.06,-3.76,0.86
22.761,3.43,-2.51,-0.65
22.863,3.08,-0.92,-0.79
22.864,3.73,3.07,-1.31
22.865,1.88,4.15,-2.48
22.866,0.92,4.57,-1.61
22.867,-0.54,6.50,-1.76
22.868,-0.59,7.50,-0.80
22.868,0.22,6.94,-1.20
22.869,-0.19,8.80,-2.44
22.870,1.06,10.49,-5.11
22.870,0.51,9.72,-2.33
22.956,0.43,8.68,-1.84
22.957,0.43,8.18,-2.08
22.958,1.36,7.05,-1.91
22.958,3.42,6.34,-1.45
22.959,4.74,5.55,-2.29
22.960,4.22,5.05,-2.14
22.961,3.12,4.00,-2.10
22.962,1.95,3.43,-1.92
22.962,1.01,2.76,-1.64
22.963,0.27,2.26,-0.98
22.989,0.28,2.33,-0.03
22.994,0.05,2.28,1.10
22.995,-0.43,1.95,1.89
22.995,-0.94,1.76,2.70
23.063,-1.79,1.18,3.96
23.064,-3.05,0.67,5.35
23.065,-4.41,-0.08,6.51
23.079,-6.57,-1.43,8.28
23.093,-8.74,-3.08,9.05
23.094,-8.41,-5.38,8.28
23.095,-5.51,-7.10,6.98
23.096,-3.70,-7.29,6.46
23.097,-3.69,-8.00,6.30
23.098,-4.25,-6.68,4.98
23.171,-4.60,-4.21,2.99
23.172,-3.72,-0.56,1.15
23.173,2.32,1.91,0.69
23.174,14.53,0.57,0.16
23.175,14.66,-7.73,0.13
23.176,7.74,-23.02,-4.85
23.177,5.79,-28.09,-8.71
23.178,2.04,-18.75,-5.17
23.192,0.66,-3.82,-7.14
23.195,8.32,7.19,-5.38
23.212,10.47,8.96,-2.73
23.281,5.35,5.55,-7.84
23.283,1.34,3.32,-10.67
23.284,-0.65,2.70,-11.13
23.284,0.04,1.98,-8.68
23.285,0.30,1.73,-5.02
23.286,-0.43,2.60,-2.09
23.286,-0.93,4.45,1.04
23.303,-1.69,4.67,2.62
23.304,-2.73,4.18,2.75
23.407,-3.92,3.84,2.43
23.408,-4.91,3.14,2.39
23.409,-5.78,2.82,3.14
23.410,-6.45,3.82,3.83
23.411,-8.45,4.52,3.64
23.412,-8.05,3.33,2.83
23.413,-7.95,1.17,2.22
23.414,-7.01,0.70,2.29
23.415,-6.05,0.92,2.43
23.420,-4.26,1.99,2.02
23.421,-2.68,2.05,1.18
23.422,-0.87,0.95,1.34
23.446,0.18,0.09,1.11
23.447,0.64,-0.61,0.65
23.516,1.40,-1.00,1.06
23.519,1.20,-0.49,0.41
23.521,0.96,-0.92,1.06
23.524,0.46,-0.74,1.64
23.524,0.54,-0.88,2.34
23.525,1.07,-0.33,1.41
23.526,0.65,-0.82,1.13
23.526,0.03,-1.27,1.24
23.620,-0.51,-1.70,0.52
23.626,-1.04,-2.51,1.56
23.627,-1.30,-3.41,3.36
23.628,-1.65,-3.99,3.03
23.628,-1.93,-4.56,2.34
23.629,-2.65,-4.77,1.34
23.629,-3.40,-4.44,0.26
23.630,-3.54,-3.90,0.05
23.630,-3.37,-3.35,0.63
23.631,-3.60,-2.93,1.13
23.645,-3.70,-2.69,0.41
23.656,-3.17,-2.47,0.81
23.715,-2.62,-1.99,1.43
23.716,-2.38,-0.96,1.55
23.717,-2.26,0.40,0.01
23.718,-1.08,2.50,-1.54
23.721,1.84,4.20,-2.21
23.726,4.93,5.02,-1.64
23.727,6.11,4.05,-0.32
23.727,7.04,-0.06,-1.12
23.756,7.10,-2.28,-2.74
23.757,5.34,-5.27,-6.03
23.758,3.23,-9.02,-6.22
23.763,2.33,-8.97,-6.01
23.864,3.11,-6.34,-4.81
23.865,3.65,-4.80,-1.47
23.866,4.97,-4.29,1.31
23.866,5.81,-2.76,3.75
23.867,5.60,-1.73,2.38
23.868,5.83,0.14,0.08
23.868,5.69,2.74,-1.86
23.869,3.62,4.21,-1.46
23.870,1.87,5.42,-2.68
23.870,1.24,5.97,-1.04
23.880,-0.46,7.34,-1.43
23.881,-1.53,7.29,-0.66
23.952,-2.85,7.16,0.53
23.953,-2.88,6.83,0.63
23.954,-2.51,7.13,-1.19
23.955,-1.17,7.92,-3.13
23.956,-0.92,8.56,-3.43
23.957,1.09,8.00,-3.29
23.958,2.38,7.20,-2.50
23.959,2.29,5.79,-2.76
23.979,3.37,5.24,-3.03
23.980,3.48,4.41,-2.83
24.064,3.04,3.85,-2.24
24.065,1.89,3.29,-1.98
24.066,1.30,2.88,-1.54
24.066,1.10,2.76,-0.90
24.067,0.91,2.88,0.16
24.073,0.95,3.10,1.51
24.074,0.81,2.71,2.87
24.081,-0.11,2.47,3.83
24.092,-1.08,2.56,4.28
24.093,-2.71,1.28,4.91
24.165,-4.47,-0.30,6.06
24.167,-5.52,-2.95,7.16
24.167,-6.16,-6.24,7.37
24.168,-5.96,-9.46,7.51
24.170,-4.95,-11.00,6.23
24.171,-3.68,-10.37,6.54
24.172,-4.39,-9.83,6.42
24.173,-4.52,-6.22,4.56
24.184,-4.60,-2.45,4.55
24.186,-3.84,-0.02,3.87
24.202,1.67,-0.25,-0.32
24.203,1.91,-7.63,-3.48
24.279,2.52,-17.95,-4.14
24.280,6.79,-24.46,-5.52
24.281,8.86,-17.03,-8.83
24.283,6.03,1.04,-3.83
24.284,7.19,10.25,1.01
24.285,11.11,10.59,1.16
24.286,7.10,8.57,-4.22
24.287,1.86,6.45,-9.81
24.392,-0.29,5.75,-12.39
24.393,-0.96,3.95,-11.09
24.394,-0.16,2.29,-8.88
24.395,0.13,2.09,-5.81
24.396,-0.37,1.78,-3.75
24.397,-0.48,1.05,0.16
24.397,-2.07,0.27,4.34
24.398,-3.23,1.09,4.32
24.398,-3.81,2.21,2.45
24.399,-4.19,3.24,2.60
24.400,-3.62,3.37,3.07
24.400,-4.27,3.15,3.40
24.442,-4.44,2.63,3.25
24.444,-4.11,1.18,3.51
24.444,-3.08,1.56,2.36
24.447,-3.24,2.32,1.84
24.489,-2.89,2.10,0.86
24.490,-2.03,0.96,0.76
24.491,0.04,-0.35,1.03
24.499,1.11,0.51,1.23
24.500,1.29,0.37,0.11
24.501,1.12,-0.12,-0.15
24.588,1.41,-0.77,0.85
24.589,2.13,-1.21,1.09
24.589,2.25,-1.77,1.48
24.590,1.11,-2.25,2.18
24.591,0.65,-2.09,1.94
24.595,-1.19,-2.40,1.92
24.596,-2.95,-2.33,2.29
24.597,-3.56,-2.50,1.66
24.598,-3.33,-2.63,1.03
24.598,-3.58,-3.69,2.01
24.681,-4.00,-3.52,2.47
24.683,-4.36,-3.39,2.64
24.684,-4.38,-3.28,2.57
24.685,-4.22,-2.93,2.19
24.686,-4.22,-2.66,1.53
24.687,-4.59,-2.13,0.10
24.688,-5.30,-1.87,-0.44
24.688,-4.85,-2.07,0.33
24.712,-2.87,-1.88,1.36
24.713,-1.46,-1.52,1.83
24.777,-0.74,-1.36,2.44
24.779,-0.49,-0.84,2.15
24.779,-0.77,-0.03,-0.21
24.780,0.68,2.00,-2.41
24.781,3.80,3.61,-3.24
24.781,4.66,4.93,-1.35
24.792,4.48,2.05,-0.17
24.793,6.31,-1.76,0.30
24.794,6.76,-3.03,-1.24
24.795,6.04,-4.48,-4.89
24.851,4.80,-6.55,-7.27
24.853,3.56,-6.76,-7.42
24.853,3.86,-4.99,-5.21
24.854,4.48,-4.54,-1.70
24.855,5.56,-4.40,1.48
24.855,5.82,-3.16,3.58
24.876,5.70,-2.20,2.10
24.879,5.24,-0.60,-0.38
24.947,4.14,1.46,-0.06
24.948,3.90,4.51,0.02
24.949,1.83,4.77,-2.11
24.950,0.49,5.84,-2.32
24.951,-1.36,7.30,-2.50
24.951,-2.29,7.65,-1.79
24.962,-2.64,7.25,-1.28
24.963,-1.94,7.19,-1.89
25.054,-2.31,6.52,-1.34
25.056,-2.46,6.42,-1.95
25.057,-0.66,8.74,-2.68
25.057,-0.01,8.18,-1.50
25.059,1.55,7.47,-1.24
25.060,2.81,7.18,-1.75
25.060,3.04,6.65,-2.31
25.072,2.41,6.13,-2.07
25.073,1.78,5.28,-2.07
25.079,1.11,4.56,-2.07
25.086,0.43,3.91,-1.92
25.087,0.45,3.39,-1.48
25.096,0.14,2.95,-0.75
25.097,-0.23,2.76,0.81
25.129,-0.74,2.56,2.29
25.130,-1.48,2.42,3.43
25.136,-2.97,1.79,4.15
25.137,-5.13,0.45,5.18
25.179,-5.63,-3.91,6.47
25.180,-5.31,-9.06,9.27
25.181,-4.78,-11.31,10.67
25.183,-5.80,-14.92,9.97
25.200,-5.63,-13.59,8.09
25.201,-5.22,-11.08,7.03
25.220,-4.39,-6.34,4.88
25.222,-3.18,-1.25,3.17
25.293,-1.27,2.97,1.86
25.295,0.93,6.00,1.67
25.296,5.56,4.76,-1.33
25.297,8.29,-0.98,-5.68
25.298,8.66,-13.35,-3.95
25.299,9.73,-21.65,-8.65
25.301,11.50,-17.55,-9.80
25.302,8.91,-6.37,-2.93
25.319,2.93,3.53,-5.00
25.320,5.52,6.90,-4.30
25.350,4.80,4.81,-4.08
25.352,0.55,4.48,-7.95
25.431,-1.19,4.22,-10.94
25.433,-1.50,2.81,-9.86
25.434,-0.64,1.32,-7.08
25.435,-0.25,0.64,-3.07
25.436,-0.31,2.11,-0.21
25.437,-0.83,3.21,1.02
25.438,-2.05,3.03,1.39
25.439,-2.99,2.71,1.82
25.440,-3.72,2.85,2.76
25.440,-4.71,3.33,3.67
25.453,-3.93,2.89,3.20
25.454,-4.60,3.03,3.16
25.496,-6.88,1.52,3.79
25.499,-8.28,-0.68,3.07
25.499,-7.19,-0.15,2.16
25.500,-5.69,1.92,2.12
25.589,-4.37,1.97,1.89
25.591,-2.43,2.25,1.35
25.591,-0.73,1.58,1.45
25.592,0.13,0.45,1.88
25.593,0.66,0.25,1.13
25.598,0.94,-0.67,0.81
25.599,1.10,-0.14,-0.53
25.600,0.70,-1.03,-0.29
25.600,1.04,-1.49,0.10
25.601,0.93,-2.36,1.10
25.617,1.05,-2.35,3.23
25.618,1.06,-2.08,3.59
25.644,0.94,-1.31,2.75
25.645,-0.11,-1.51,2.45
25.698,-1.35,-2.00,1.80
25.700,-1.98,-2.27,0.80
25.700,-2.99,-3.35,0.67
25.701,-3.34,-4.12,2.33
25.702,-4.32,-3.71,2.51
25.702,-4.89,-3.34,1.91
25.768,-5.17,-3.14,1.38
25.769,-5.30,-2.66,0.81
25.770,-4.76,-2.65,0.81
25.771,-3.19,-2.59,1.30
25.772,-1.71,-2.00,2.04
25.776,-0.66,-1.54,1.94
25.789,0.40,-0.89,1.66
25.790,0.32,-0.57,0.45
25.793,0.33,0.38,-1.03
25.800,2.09,2.25,-1.55
25.813,4.18,4.86,-2.55
25.814,3.53,4.02,-0.80
25.903,4.17,0.51,0.73
25.905,6.94,-2.31,-1.38
25.906,6.33,-3.07,-4.29
25.907,5.29,-5.47,-6.88
25.908,3.60,-6.83,-8.01
25.909,2.34,-5.52,-6.49
25.909,2.06,-3.55,-3.06
25.910,2.56,-3.57,0.89
25.916,4.07,-4.08,3.07
25.918,4.15,-3.37,2.12
25.941,4.40,-2.11,-0.44
25.943,4.55,-0.90,-0.93
26.009,3.50,3.08,0.49
26.011,2.21,4.69,-0.79
26.011,1.35,5.64,-3.32
26.012,-1.04,7.23,-3.58
26.015,-1.75,8.20,-2.19
26.018,-2.22,7.35,-0.37
26.019,-2.37,7.79,-1.97
26.019,-1.86,7.62,-1.91
26.036,-1.13,7.64,-1.24
26.070,0.54,8.16,-2.73
26.070,0.68,7.51,-1.89
26.071,1.30,6.43,-1.89
26.112,3.44,6.82,-3.01
26.114,4.83,6.78,-2.86
26.114,4.17,6.29,-2.96
26.115,3.00,5.26,-2.45
26.122,2.17,4.17,-2.18
26.123,1.02,3.03,-2.13
26.146,0.38,2.46,-1.60
26.156,0.27,2.06,-0.47
26.207,0.00,1.89,1.20
26.208,-0.02,1.90,2.78
26.213,-0.05,2.11,4.02
26.214,-0.83,1.94,4.93
26.214,-2.56,0.75,5.25
26.215,-4.75,-1.15,5.90
26.222,-5.55,-3.74,6.93
26.223,-5.60,-6.64,7.84
26.240,-6.06,-9.69,8.31
26.241,-3.75,-10.57,7.21
26.260,-3.28,-10.89,6.43
26.262,-5.15,-9.61,6.00
26.279,-5.87,-6.32,3.71
26.281,-5.36,-1.88,2.49
26.373,-4.65,1.31,2.47
26.374,-4.77,4.55,1.73
26.375,-1.00,6.18,-3.38
26.378,7.15,2.46,-5.76
26.385,10.06,-10.44,0.00
26.387,7.45,-19.53,-10.63
26.388,11.80,-22.27,-12.96
26.389,10.21,-14.23,-1.35
26.390,4.58,-1.73,1.33
26.391,3.57,4.56,-1.82
26.399,4.86,5.25,-1.77
26.401,2.03,5.95,-7.23
26.490,-0.93,5.74,-11.31
26.491,-1.11,3.87,-10.76
26.493,0.11,3.08,-6.74
26.493,1.83,2.84,-1.77
26.494,2.77,3.06,2.37
26.507,2.79,2.81,3.31
26.508,0.57,2.42,1.92
26.516,-1.36,2.08,1.10
26.517,-3.14,2.00,1.41
26.518,-4.90,2.27,2.52
26.519,-6.35,2.84,3.20
26.523,-8.13,3.27,3.08
26.563,-7.54,3.35,2.05
26.566,-5.64,2.97,1.49
26.567,-4.26,2.81,1.21
26.568,-3.39,1.42,0.58
26.590,-2.75,0.23,1.19
26.591,-2.08,-0.53,1.40
26.599,-1.18,-0.91,2.34
26.600,0.12,0.00,2.49
26.619,1.33,-0.04,1.55
26.620,1.11,-0.76,1.12
26.701,0.56,-1.18,1.22
26.702,-0.37,-0.84,1.07
26.703,-0.84,-0.98,1.27
26.704,-1.25,-0.94,1.83
26.704,-1.42,-1.03,2.71
26.705,-1.23,-0.59,2.52
26.706,-1.45,-1.21,1.21
26.707,-1.23,-1.64,0.28
26.789,-1.60,-2.49,-0.28
26.791,-2.39,-3.48,1.26
26.792,-2.55,-3.85,3.05
26.793,-2.84,-3.79,3.03
26.794,-2.92,-3.62,2.06
26.795,-2.87,-3.32,1.13
26.802,-2.64,-2.77,0.34
26.803,-2.96,-2.42,-0.02
26.804,-3.19,-2.52,-0.18
26.809,-3.00,-2.61,0.71
26.819,-2.34,-2.48,1.90
26.821,-1.85,-2.18,2.85
26.843,-1.63,-2.02,2.75
26.844,-2.08,-1.22,0.25
26.913,0.01,1.00,-2.42
26.915,1.85,3.77,-2.76
26.922,2.86,4.58,-2.30
26.923,4.55,1.94,-1.08
26.924,7.04,-1.95,-0.69
26.925,7.95,-4.01,-2.14
26.925,7.33,-5.82,-5.00
26.926,5.69,-7.03,-7.85
26.988,4.19,-5.36,-7.01
26.989,4.07,-2.53,-3.74
26.990,4.29,-2.40,0.01
26.991,4.59,-2.95,2.07
26.992,3.89,-2.54,2.61
26.998,2.93,-1.48,-1.46
27.000,3.72,0.68,0.28
27.001,3.79,4.44,-0.65
27.016,1.20,3.23,-0.27
27.018,1.54,4.90,-0.78
27.046,0.61,5.99,-2.21
27.054,-0.84,7.62,-1.61
27.066,-1.63,8.47,-1.69
27.067,-1.51,9.34,-2.48
27.118,-1.55,8.91,-1.53
27.120,-0.72,9.94,-1.12
27.121,-1.30,8.03,-0.81
27.123,0.73,8.35,-1.71
27.124,0.46,6.23,-0.86
27.125,1.47,5.07,-1.32
27.137,2.63,4.35,-2.09
27.150,3.75,3.98,-1.53
27.292,4.13,3.91,-1.80
27.295,3.29,3.15,-1.61
27.296,2.60,2.41,-1.88
27.298,1.47,1.73,-1.73
27.298,0.63,1.43,-1.11
27.326,-0.11,1.26,-0.04
27.327,-0.85,1.19,1.45
27.328,-1.79,1.13,3.02
27.331,-2.66,1.30,4.06
27.333,-4.40,1.03,5.74
27.339,-5.77,-1.08,6.96
27.360,-6.16,-4.25,7.85
27.361,-4.90,-7.37,8.08
27.362,-4.48,-10.90,9.09
27.363,-4.55,-11.55,7.84
27.364,-5.75,-11.10,7.19
27.393,-5.68,-7.64,5.01
27.397,-4.58,-3.63,3.17
27.397,-2.98,0.51,2.25
27.398,-1.63,4.09,2.12
27.407,-1.14,6.51,1.73
27.407,1.30,6.21,-2.80
27.408,6.61,1.47,-6.45
27.409,10.31,-11.45,-3.01
27.410,7.29,-23.28,-8.34
27.410,10.60,-17.56,-12.43
27.432,9.99,-6.53,-2.01
27.440,3.94,2.72,-0.21
27.449,5.67,5.86,-2.04
27.450,5.38,5.08,-4.05
27.459,1.62,4.64,-7.85
27.460,-0.99,4.06,-11.49
27.538,-1.25,2.64,-10.31
27.540,-0.31,0.67,-5.45
27.541,1.00,0.18,-1.92
27.541,0.97,1.07,-0.85
27.542,0.64,1.96,-0.67
27.543,-0.83,1.88,0.30
27.543,-2.73,1.53,1.19
27.551,-4.68,1.53,1.96
27.553,-5.78,1.92,3.34
27.554,-5.61,2.15,3.25
27.638,-5.92,2.51,3.65
27.639,-5.47,3.36,4.53
27.640,-4.89,2.59,2.38
27.641,-3.81,1.65,2.01
27.641,-2.89,1.45,2.23
27.642,-1.90,1.34,1.68
27.643,-1.21,0.60,1.06
27.643,-1.11,0.78,1.34
27.662,-0.28,-0.35,0.55
27.669,0.13,-0.36,0.96
27.718,0.83,-0.56,2.17
27.720,0.54,-0.09,1.63
27.721,-0.17,-0.06,0.73
27.721,-1.10,-0.14,0.90
27.723,-1.52,-0.53,2.08
27.724,-1.58,-0.82,2.24
27.737,-1.78,-1.03,1.68
27.738,-2.36,-1.36,1.25
27.854,-2.82,-1.72,1.03
27.856,-2.52,-2.13,0.72
27.857,-2.66,-2.80,1.07
27.857,-2.40,-3.07,2.95
27.858,-2.23,-3.11,3.65
27.863,-2.30,-3.70,3.29
27.864,-2.37,-3.87,2.52
27.865,-2.64,-3.56,1.25
27.865,-2.86,-3.41,0.45
27.866,-2.45,-3.43,-0.17
27.867,-1.60,-3.41,0.08
27.867,-0.61,-2.81,0.75
27.877,-0.20,-2.41,1.00
27.879,-0.22,-1.95,1.07
27.936,-0.13,-0.73,0.68
27.937,-0.28,0.53,-0.30
27.938,0.49,2.17,-1.39
27.939,2.97,3.86,-1.28
27.942,3.37,4.19,-1.42
27.943,3.52,1.59,-1.13
27.952,5.63,-1.16,-0.92
27.969,6.10,-4.02,-3.03
27.972,5.11,-5.94,-4.98
27.973,3.32,-5.84,-5.89
28.043,2.37,-4.10,-5.42
28.044,2.95,-2.98,-3.14
28.045,3.67,-3.04,-0.36
28.046,4.49,-3.55,1.50
28.046,4.31,-3.29,1.53
28.059,4.40,-2.32,-1.14
28.121,3.67,-0.98,0.53
28.123,2.99,3.09,1.18
28.124,1.11,3.09,-1.95
28.125,1.31,4.36,-2.00
28.126,-0.93,6.34,-1.31
28.127,-2.40,7.65,-1.52
28.128,-1.97,8.02,-0.97
28.128,-1.75,8.93,-1.17
28.157,-1.99,8.06,-2.68
28.157,-1.49,8.39,-3.78
28.158,-0.80,8.14,-3.22
28.159,-1.72,6.65,-2.24
28.243,-0.63,6.23,-3.43
28.244,1.66,6.58,-3.28
28.245,3.12,5.95,-2.36
28.246,4.47,6.18,-2.33
28.247,4.32,5.41,-1.53
28.248,3.79,5.16,-1.74
28.249,2.75,4.14,-1.72
28.250,1.62,3.25,-1.48
28.272,0.97,2.47,-0.76
28.274,0.21,1.67,0.47
28.275,-0.51,1.21,1.81
28.276,-1.00,0.81,3.10
28.338,-1.60,0.59,3.94
28.339,-3.07,0.20,5.37
28.340,-5.04,-2.51,7.12
28.341,-5.88,-6.15,8.59
28.344,-4.69,-9.37,9.21
28.345,-3.47,-12.08,10.69
28.366,-3.40,-12.58,8.78
28.367,-4.01,-11.43,7.22
28.386,-3.49,-6.81,4.80
28.387,-4.01,-2.13,3.03
28.410,-3.69,1.73,1.75
28.411,-3.15,4.76,2.20
28.478,-3.33,6.05,1.92
28.480,0.36,5.00,-5.76
28.481,5.61,-3.27,-6.45
28.482,6.99,-16.04,-4.79
28.484,8.53,-18.96,-14.60
28.485,11.13,-12.36,-9.83
28.494,10.89,-8.97,11.16
28.495,3.20,0.14,-3.09
28.496,4.60,5.03,-4.62
28.497,3.21,7.54,-7.31
28.575,1.07,6.38,-9.65
28.577,0.36,4.81,-10.71
28.579,0.61,2.97,-8.52
28.580,1.65,0.88,-4.46
28.581,1.94,0.78,-2.10
28.582,1.95,1.90,0.45
28.583,0.16,0.59,1.52
28.584,-2.34,-0.32,1.52
28.690,-4.33,-0.81,1.43
28.691,-5.57,1.56,1.98
28.692,-6.59,2.90,3.25
28.692,-7.54,3.93,3.86
28.693,-6.82,4.05,3.86
28.694,-5.29,3.14,3.86
28.695,-4.41,2.62,2.60
28.695,-3.24,2.36,1.53
28.696,-2.45,1.99,1.26
28.697,-1.88,2.35,0.61
28.713,-1.34,2.40,0.63
28.714,-1.05,1.19,0.59
28.817,0.66,-1.27,2.20
28.818,0.51,-1.38,1.78
28.822,0.20,-0.78,0.29
28.823,-0.15,-0.58,0.13
28.823,-0.76,-1.14,0.77
28.824,-0.88,-0.79,1.29
28.825,-0.78,-1.11,2.07
28.825,-0.16,-1.18,2.73
28.826,0.12,-1.35,2.22
28.826,-0.57,-2.03,1.47
28.827,-0.96,-2.66,1.26
28.828,-1.63,-3.14,0.83
28.849,-2.41,-3.74,2.46
28.850,-3.20,-3.95,4.08
28.853,-3.76,-3.98,3.31
28.854,-3.83,-4.04,2.17
28.942,-3.97,-3.51,0.41
28.950,-4.13,-2.94,0.04
28.950,-3.58,-2.57,0.30
28.952,-2.24,-2.96,0.99
28.956,-0.44,-3.01,2.24
28.957,0.23,-2.54,2.24
28.957,-0.30,-2.28,0.89
28.958,-1.06,-1.49,-0.68
28.964,-0.15,0.33,-2.06
28.965,0.73,2.09,-1.69
29.018,1.81,3.56,-0.92
29.020,2.26,3.66,-0.98
29.020,3.59,0.99,-1.14
29.021,5.20,-1.77,-1.51
29.022,5.52,-4.16,-3.38
29.023,5.14,-5.28,-5.96
29.033,4.41,-3.86,-6.50
29.038,3.66,-1.37,-3.74
29.109,2.86,-0.33,0.33
29.111,3.14,-1.15,1.86
29.112,3.60,-2.30,1.00
29.113,3.69,-3.80,-2.23
29.114,3.69,-2.15,-0.26
29.115,3.68,1.65,-0.53
29.116,2.14,0.97,-2.64
29.117,2.71,4.62,-1.53
29.220,1.83,5.04,-1.63
29.221,1.13,6.87,-2.95
29.222,-0.24,8.00,-1.86
29.223,-0.58,7.49,0.01
29.224,-1.27,7.87,-1.06
29.224,-1.09,8.05,-1.07
29.227,0.11,8.26,-1.24
29.228,0.94,6.53,-0.99
29.228,0.44,4.95,-1.17
29.229,1.40,5.21,-2.24
29.245,2.59,5.02,-2.97
29.246,4.17,5.15,-2.49
29.317,4.43,5.42,-2.39
29.318,3.63,5.54,-2.17
29.319,2.33,5.50,-2.31
29.320,1.82,5.02,-1.72
29.321,0.64,3.89,-0.91
29.322,-0.61,2.64,0.72
29.330,-1.49,1.91,2.23
29.330,-2.14,1.58,3.23
29.402,-2.88,1.50,4.11
29.404,-4.31,0.18,5.31
29.405,-5.79,-2.96,6.50
29.406,-6.46,-6.84,7.45
29.407,-6.22,-10.28,8.73
29.408,-5.64,-11.84,7.99
29.409,-4.00,-10.20,6.63
29.410,-5.54,-8.68,5.38
29.442,-6.69,-5.43,3.69
29.444,-5.73,-1.53,2.19
29.444,-5.00,1.42,2.31
29.446,-4.98,4.73,1.43
29.534,-2.79,7.11,-3.33
29.548,4.48,4.87,-5.16
29.549,14.32,-5.15,-0.29
29.551,10.39,-20.78,-6.16
29.575,12.45,-26.28,-14.69
29.576,10.60,-15.75,-1.50
29.580,4.28,-5.13,5.19
29.580,3.56,5.49,0.40
29.581,8.56,8.86,-0.10
29.581,5.86,5.98,-5.30
29.582,2.00,4.63,-9.91
29.583,0.66,4.11,-10.90
29.606,1.10,1.65,-6.63
29.606,1.91,0.37,-3.23
29.607,2.47,1.77,-2.13
29.608,0.65,2.27,-1.40
29.674,-3.18,0.33,-0.94
29.676,-6.49,-1.05,-0.78
29.677,-7.14,-0.35,1.33
29.677,-6.38,1.56,3.25
29.678,-6.57,2.17,3.05
29.679,-6.94,3.17,2.17
29.680,-5.67,3.56,4.00
29.681,-3.94,3.71,2.72
29.699,-2.21,3.62,1.70
29.701,-1.15,3.29,1.40
29.760,-1.11,3.36,1.52
29.763,-1.42,2.83,1.48
29.765,-1.82,1.27,1.51
29.766,-1.08,-0.05,2.37
29.767,-0.39,-0.56,1.99
29.767,1.10,-0.20,1.54
29.834,1.68,-0.18,1.08
29.836,1.45,-0.79,0.80
29.836,1.07,-0.99,0.75
29.839,0.56,-1.01,1.51
29.841,-0.47,-0.84,2.42
29.842,-0.88,-1.12,2.34
29.843,-2.16,-1.67,1.72
29.844,-3.22,-2.30,2.10
29.853,-3.62,-2.39,2.53
29.859,-4.28,-2.64,1.30
29.872,-4.52,-3.43,0.99
29.875,-3.83,-4.16,1.79
29.947,-3.21,-4.19,1.91
29.948,-3.40,-4.08,2.11
29.949,-4.01,-3.66,1.86
29.950,-4.97,-3.04,0.89
29.952,-4.85,-2.70,0.27
29.953,-3.15,-3.20,0.70
29.960,-1.47,-3.47,1.45
29.960,-0.93,-3.04,1.59
29.989,-0.77,-2.23,0.58
29.990,0.03,-0.71,-0.94
30.049,1.47,0.78,-2.35
30.056,2.70,2.93,-2.47
30.057,2.38,3.08,-2.80
30.058,2.72,1.90,-1.82
30.060,5.15,-1.15,0.07
30.074,7.00,-3.28,-0.02
30.075,7.95,-4.19,-2.23
30.078,8.00,-5.52,-4.52
30.086,6.73,-4.83,-5.21
30.087,5.80,-2.38,-4.05
30.148,4.50,-1.21,-0.40
30.150,3.18,-1.64,2.58
30.151,2.74,-1.62,0.86
30.152,1.61,-2.48,-2.56
30.153,2.01,0.15,-1.08
30.154,2.56,4.65,0.74
30.161,0.40,3.46,-2.60
30.162,-0.19,4.31,-1.55
30.172,-0.25,6.63,-0.76
30.173,-0.51,7.31,-1.12
30.253,-0.42,8.20,-1.49
30.255,-1.18,7.94,-1.46
30.255,-1.23,7.30,-1.79
30.256,-0.65,7.41,-2.85
30.257,0.13,7.35,-2.48
30.269,1.55,6.31,-1.48
30.270,2.27,5.76,-1.79
30.270,1.85,5.15,-1.67
30.329,2.85,4.97,-2.26
30.330,3.73,4.66,-2.26
30.331,3.14,4.41,-1.40
30.333,2.83,4.54,-1.25
30.334,1.88,4.05,-1.12
30.334,1.15,3.34,-1.28
30.335,0.72,2.85,-1.17
30.336,0.55,2.32,-0.55
30.353,-0.14,1.97,0.80
30.353,-1.48,1.62,1.94
30.373,-2.25,1.55,3.05
30.374,-3.37,1.21,4.48
30.466,-4.76,0.30,6.40
30.467,-6.40,-2.45,7.25
30.468,-5.80,-5.50,7.67
30.469,-5.00,-9.04,8.49
30.473,-3.59,-11.02,7.56
30.474,-5.39,-11.33,7.41
30.475,-5.38,-10.78,5.74
30.476,-4.96,-6.04,3.97
30.483,-3.93,-1.59,2.62
30.486,-4.13,2.63,2.62
30.493,-1.88,3.77,1.23
30.494,3.02,0.62,-5.31
30.526,6.56,-11.24,-3.26
30.527,6.96,-20.31,-6.32
30.604,11.44,-20.11,-12.26
30.605,10.73,-11.08,-4.84
30.613,7.42,0.70,3.46
30.614,7.22,6.04,0.28
30.614,6.65,6.11,-3.19
30.615,3.77,4.62,-7.63
30.622,1.92,3.99,-11.74
30.623,1.24,2.78,-10.30
30.625,0.38,2.33,-5.43
30.625,0.79,2.86,-2.12
30.704,1.86,3.42,-0.50
30.705,2.07,4.36,-0.56
30.706,0.16,3.51,0.30
30.707,-2.30,2.69,0.20
30.708,-4.27,2.47,0.55
30.708,-6.14,2.13,1.39
30.711,-6.96,2.12,3.18
30.711,-8.05,3.70,3.57
30.739,-9.00,4.37,2.04
30.740,-8.15,3.76,2.92
30.741,-7.63,2.17,2.61
30.741,-5.15,0.90,1.87
30.836,-3.31,0.91,1.33
30.838,-2.66,1.45,1.34
30.838,-1.21,0.21,1.49
30.839,-0.35,-0.95,1.24
30.840,0.75,-1.60,2.45
30.840,1.37,-1.59,1.57
30.841,1.72,-1.53,0.29
30.844,1.36,-1.94,0.24
30.844,1.06,-1.80,1.03
30.845,0.14,-1.54,1.45
30.901,0.02,-1.17,2.57
30.903,0.79,-0.62,2.86
30.904,0.54,-0.89,2.68
30.904,-0.73,-1.78,1.81
30.905,-1.78,-2.55,0.81
30.906,-2.37,-2.87,1.72
30.915,-3.17,-2.85,2.96
30.919,-3.07,-3.24,2.31
30.994,-2.05,-3.99,2.06
30.995,-2.18,-3.77,1.54
30.997,-3.45,-3.20,0.82
30.997,-4.67,-2.54,0.44
30.998,-5.39,-1.68,0.86
30.999,-5.48,-1.47,1.38
31.000,-4.07,-1.32,2.01
31.001,-2.47,-1.59,2.05
31.017,-1.27,-0.45,0.87
31.018,0.11,0.76,-1.24
31.121,2.30,3.51,-3.06
31.125,2.86,3.43,-3.35
31.125,4.03,1.00,-1.33
31.126,7.07,-3.44,-0.06
31.127,8.59,-4.05,-0.64
31.128,8.09,-5.26,-2.96
31.128,6.45,-6.42,-6.09
31.129,4.39,-6.42,-8.52
31.130,3.42,-5.10,-7.99
31.131,2.91,-4.59,-3.01
31.146,3.66,-4.51,1.16
31.148,4.06,-4.23,4.07
31.154,3.61,-3.25,2.46
31.154,3.66,-0.80,0.83
31.228,5.07,3.80,2.46
31.229,1.57,3.54,-2.05
31.230,1.16,5.13,-1.03
31.230,0.53,7.41,-0.87
31.234,-0.81,8.80,-1.59
31.241,0.05,9.96,-2.72
31.242,-0.16,11.36,-3.09
31.243,-2.66,9.92,-1.78
31.305,-3.32,9.79,-2.69
31.306,-1.82,10.08,-3.03
31.307,-0.59,8.39,-1.86
31.308,1.11,6.99,-1.81
31.309,2.40,6.24,-1.92
31.310,3.20,5.58,-1.98
31.326,3.83,4.38,-2.08
31.328,3.54,3.21,-2.34
31.396,3.03,2.31,-2.53
31.398,1.78,1.90,-2.59
31.398,1.09,1.97,-2.09
31.399,0.96,2.05,-1.66
31.400,0.55,1.72,-0.65
31.400,0.12,1.66,0.25
31.401,-0.76,1.26,1.89
31.401,-1.39,1.38,3.25
31.416,-1.63,1.42,4.80
31.464,-2.05,1.09,5.86
31.465,-3.55,-0.72,6.69
31.466,-4.73,-4.88,7.74
31.467,-4.90,-8.27,8.24
31.468,-4.76,-11.50,9.47
31.479,-4.90,-14.05,7.22
31.480,-4.99,-12.97,8.40
31.509,-4.70,-7.57,5.07
31.511,-5.61,-3.27,3.61
31.511,-4.92,1.42,1.99
31.512,-4.38,4.69,2.24
31.563,-2.01,5.67,0.46
31.564,2.60,3.40,-5.10
31.565,5.82,-8.36,-2.11
31.566,4.75,-20.53,-1.88
31.569,8.20,-20.60,-11.23
31.570,8.01,-11.37,-8.22
31.592,5.60,0.36,-0.88
31.594,7.50,8.61,-1.22
31.685,9.65,6.73,-0.88
31.686,5.28,5.13,-6.01
31.687,2.93,4.90,-10.83
31.688,2.05,4.23,-11.08
31.688,1.68,2.31,-7.30
31.692,1.31,1.30,-3.30
31.693,0.21,0.72,-2.02
31.694,-0.66,0.57,-2.18
31.694,-1.30,1.09,-1.38
31.696,-2.84,1.04,-0.76
31.712,-4.94,-0.06,0.67
31.715,-6.07,1.63,3.44
31.760,-6.10,2.40,3.97
31.761,-5.64,3.62,4.36
31.762,-4.34,4.41,4.23
31.762,-3.43,3.80,3.55
31.823,-3.42,2.73,2.46
31.824,-3.62,1.76,1.63
31.824,-3.32,0.86,2.18
31.825,-2.27,1.49,1.61
31.826,-2.13,1.31,0.93
31.827,-1.52,-0.05,-0.16
31.832,-1.01,-0.74,0.37
31.833,0.47,-0.28,2.08
31.926,1.23,-0.14,2.49
31.928,1.27,-0.56,1.64
31.929,2.55,-0.41,1.00
31.932,1.58,-0.55,0.51
31.933,0.32,-0.54,0.90
31.933,-0.12,-0.58,1.72
31.934,-0.12,-0.61,3.10
31.935,-0.82,-1.25,3.37
31.936,-1.71,-2.13,2.19
31.936,-2.26,-2.21,1.09
31.955,-1.86,-2.62,1.66
31.956,-1.81,-3.03,2.44
32.042,-1.86,-3.19,2.25
32.052,-1.41,-3.35,1.81
32.053,-1.29,-3.64,1.56
32.054,-1.14,-3.28,1.02
32.054,-0.90,-3.31,0.65
32.055,-0.52,-3.02,0.51
32.055,-0.53,-2.46,0.68
32.070,-0.38,-1.94,1.49
32.071,-0.29,-1.93,1.45
32.071,-0.32,-1.58,0.54
32.072,0.01,-0.52,-0.70
32.073,1.48,2.64,-1.94
32.117,1.73,3.89,-3.36
32.119,1.44,3.08,-2.65
32.120,2.76,-0.62,-1.73
32.121,4.75,-3.13,-0.31
32.146,5.70,-4.36,-0.70
32.147,5.35,-5.09,-1.95
32.149,5.09,-4.94,-4.23
32.150,4.30,-2.74,-5.78
32.239,3.41,-0.70,-5.16
32.240,1.39,-0.07,-2.59
32.241,1.25,-1.83,-0.65
32.242,2.36,-2.98,1.59
32.243,3.18,-2.77,1.38
32.244,4.72,-0.94,2.52
32.245,2.51,0.77,-0.15
32.249,0.89,2.17,-3.10
32.250,0.40,3.43,-2.19
32.251,0.22,5.86,-2.99
32.353,-0.14,7.11,-2.76
32.355,0.15,8.98,-2.43
32.355,0.03,8.98,-1.17
32.356,0.57,8.75,-2.20
32.357,0.28,7.62,-1.94
32.357,-0.88,6.22,-1.75
32.358,-1.01,5.64,-2.13
32.358,1.01,5.60,-2.54
32.363,2.49,4.79,-2.34
32.363,3.76,4.10,-2.09
32.372,4.42,3.71,-2.00
32.373,4.57,3.90,-1.93
32.406,3.76,3.71,-1.84
32.407,2.59,3.26,-1.93
32.460,1.53,2.31,-1.85
32.461,1.04,1.53,-0.89
32.462,0.65,1.07,0.34
32.463,-0.42,0.75,1.61
32.464,-1.08,0.87,2.92
32.464,-1.47,0.65,4.00
32.485,-2.64,-0.48,5.39
32.486,-4.52,-2.57,7.22
32.554,-5.54,-5.06,8.35
32.555,-4.98,-7.05,8.25
32.556,-6.12,-8.49,7.66
32.557,-6.62,-9.48,5.01
32.558,-6.32,-9.38,5.16
32.558,-6.04,-6.34,3.89
32.559,-5.17,-2.55,2.62
32.560,-4.19,0.75,2.89
32.569,-3.86,2.64,2.18
32.570,-0.34,1.17,-2.78
32.592,3.88,-8.81,-1.35
32.593,3.60,-18.53,-2.40
32.684,6.35,-19.09,-8.78
32.685,8.94,-8.24,-9.76
32.687,9.35,2.56,0.94
32.687,11.19,7.89,2.20
32.689,10.68,7.18,-0.56
32.690,5.27,4.39,-6.27
32.690,2.24,3.81,-12.08
32.691,1.02,3.58,-13.78
32.694,0.78,2.53,-10.17
32.696,1.17,1.31,-4.02
32.796,1.37,0.91,0.44
32.797,0.22,0.77,-0.06
32.797,-1.80,1.65,-1.17
32.798,-3.59,1.32,1.42
32.799,-5.06,1.63,2.53
32.800,-5.41,2.57,2.82
32.801,-6.61,2.56,3.57
32.801,-7.06,3.08,4.21
32.802,-5.94,3.18,4.34
32.803,-5.30,2.66,4.10
32.812,-4.78,2.41,3.16
32.813,-3.68,2.06,2.15
32.852,-3.24,2.05,2.60
32.857,-2.35,2.76,1.24
32.858,-2.62,2.35,2.04
32.859,-1.35,0.52,1.21
32.939,0.84,1.15,1.09
32.944,1.77,0.40,1.16
32.945,2.21,-0.41,0.78
32.955,1.70,-0.58,-0.40
32.958,0.33,-0.48,-0.65
32.959,-0.73,-1.09,0.07
32.960,-1.24,-1.44,0.97
32.961,-0.99,-1.69,2.73
32.962,-0.31,-1.52,3.79
32.963,0.02,-1.60,3.22
33.033,-0.07,-1.68,1.80
33.034,-0.77,-2.34,0.65
33.035,-1.59,-2.89,0.07
33.036,-2.40,-3.19,1.34
33.036,-2.77,-3.04,3.61
33.037,-3.03,-2.69,3.82
33.038,-3.88,-2.83,2.10
33.042,-5.01,-2.69,-0.04
33.136,-5.68,-2.61,-0.47
33.137,-4.98,-2.53,0.46
33.138,-3.24,-2.76,2.24
33.139,-1.77,-2.80,3.10
33.140,-1.10,-2.39,2.48
33.140,-0.72,-1.50,0.19
33.141,-0.01,0.05,-2.18
33.142,1.92,2.86,-2.87
33.144,2.04,4.35,-3.21
33.145,2.99,1.81,-3.33
33.219,5.59,-1.43,-1.13
33.220,6.26,-3.02,-0.67
33.221,6.17,-5.09,-2.35
33.223,5.37,-6.62,-4.59
33.223,4.88,-5.75,-5.27
33.224,5.55,-3.61,-4.42
33.224,5.27,-1.73,0.21
33.225,4.11,-1.97,2.78
33.394,4.53,-2.62,0.99
33.396,3.86,-2.48,-0.58
33.397,3.05,-0.19,-3.41
33.397,2.95,1.56,0.32
33.398,1.97,3.00,-0.48
33.399,0.38,3.61,-1.61
33.400,-1.25,4.70,-1.68
33.400,-0.55,7.28,-4.40
33.410,-0.47,7.58,-1.34
33.411,-0.97,7.53,-0.14
33.412,-0.92,7.78,-1.72
33.412,-0.47,8.08,-2.13
33.413,-0.51,7.31,-2.23
33.414,-0.03,6.87,-2.38
33.414,1.74,7.12,-2.50
33.440,2.12,5.93,-2.08
33.448,2.88,4.98,-2.58
33.449,4.09,4.51,-2.59
33.449,4.10,4.25,-1.95
33.450,3.27,4.07,-1.71
33.450,2.41,3.37,-1.75
33.451,1.39,2.50,-1.43
33.452,1.06,2.05,-1.30
33.452,0.46,1.81,-0.16
33.475,-0.37,1.79,0.70
33.477,-1.46,1.63,1.76
33.580,-1.39,1.64,2.50
33.581,-1.12,0.70,3.85
33.581,-2.37,-1.06,6.72
33.585,-5.49,-4.66,9.74
33.589,-7.45,-7.36,10.24
33.590,-8.05,-10.43,9.58
33.591,-7.06,-11.70,7.31
33.592,-5.91,-9.59,7.76
33.592,-7.56,-7.63,4.41
33.596,-5.73,-3.93,1.70
33.605,-4.30,0.21,2.60
33.607,-3.40,2.62,2.93
33.622,2.19,1.49,-4.81
33.624,5.97,-7.93,-6.67
33.632,7.52,-19.32,-4.36
33.634,11.80,-24.07,-4.05
33.652,12.37,-16.22,-0.16
33.730,4.45,-0.47,-0.25
33.730,5.18,6.08,-2.47
33.731,6.85,7.50,-3.95
33.737,3.50,7.11,-9.11
33.742,1.32,5.46,-13.03
33.743,1.21,3.82,-12.52
33.744,1.82,2.72,-8.22
33.745,2.45,2.44,-3.50
33.746,2.12,3.44,-0.53
33.756,1.79,4.43,1.12
33.760,-0.16,3.27,1.11
33.776,-2.50,2.54,0.73
33.777,-3.89,1.90,0.67
33.796,-5.33,2.07,1.71
33.798,-7.05,2.24,2.25
33.817,-8.31,3.26,3.17
33.820,-9.01,3.87,3.93
33.836,-6.72,3.98,3.58
33.837,-4.77,3.29,2.81
33.856,-3.65,1.87,2.48
33.857,-2.90,1.23,2.59
33.876,-2.60,1.47,2.18
33.877,-1.90,0.88,1.22
33.896,-0.48,1.11,1.61
33.897,0.01,0.17,1.95
33.915,0.75,-0.01,1.80
33.916,0.80,1.22,0.65
33.936,0.28,0.95,0.53
33.936,-0.03,0.80,1.01
33.955,-0.14,-0.02,1.82
33.956,-0.46,-0.50,2.40
33.989,-0.85,-0.62,2.57
33.990,-0.97,-1.07,2.25
33.991,-1.12,-1.81,1.84
33.992,-1.42,-2.29,1.27
34.018,-1.71,-3.02,1.00
34.019,-2.27,-3.66,1.27
34.039,-2.74,-3.93,2.04
34.043,-3.23,-3.89,2.88
34.065,-3.54,-3.63,2.62
34.066,-3.85,-3.28,1.92
34.080,-4.42,-2.94,0.96
34.081,-5.02,-2.65,0.44
34.097,-4.19,-2.28,0.93
34.098,-2.73,-2.00,2.08
34.119,-1.63,-1.77,2.28
34.120,-0.95,-1.48,0.50
34.149,-0.98,-0.75,-2.25
34.151,2.27,1.67,-2.93
34.152,4.08,2.31,-3.29
34.153,4.71,1.10,-1.35
34.174,6.72,-1.44,0.83
34.175,7.25,-4.05,-0.86
34.189,6.75,-6.58,-3.95
34.190,5.94,-7.82,-6.97
34.222,4.61,-6.37,-9.24
34.224,3.56,-4.44,-6.21
34.232,2.98,-3.13,-1.28
34.233,4.53,-3.43,3.13
34.267,5.48,-2.65,3.47
34.268,3.84,-2.06,0.12
34.282,3.54,-0.30,-2.75
34.283,4.73,2.24,1.65
34.292,3.12,4.80,-1.29
34.294,1.61,4.45,-2.63
34.312,0.77,5.59,-2.73
34.313,-0.93,7.37,-1.06
34.332,-0.88,8.33,-1.34
34.334,-1.34,9.04,-0.94
34.354,-0.84,9.01,-0.93
34.355,-0.88,8.35,-1.04
34.372,-0.30,7.97,-1.21
34.373,0.17,7.96,-1.37
34.392,-0.60,7.05,-1.24
34.393,0.21,6.20,-2.43
34.423,1.91,5.58,-2.94
34.424,3.10,5.27,-3.04
34.443,3.37,4.60,-2.50
34.449,3.08,4.28,-2.21
34.462,2.38,3.60,-2.19
34.463,1.46,3.00,-2.00
34.484,0.90,2.56,-1.39
34.485,-0.23,2.23,0.05
34.492,-1.06,1.70,1.55
34.493,-1.69,1.40,2.98
34.512,-1.98,1.10,4.01
34.514,-2.02,-0.21,4.78
34.543,-3.29,-3.13,6.67
34.550,-4.09,-5.90,7.55
34.553,-5.14,-8.16,7.37
34.554,-5.47,-9.61,5.62
34.579,-4.42,-9.37,5.33
34.590,-6.10,-9.04,4.91
34.599,-5.38,-7.04,2.80
34.602,-4.80,-3.43,2.17
34.626,-4.24,0.00,2.03
34.627,-4.23,2.83,1.63
34.638,-1.47,4.84,-1.35
34.644,8.19,2.28,-4.10
34.657,10.20,-9.74,0.75
34.658,4.98,-23.19,-9.45
34.676,9.32,-28.20,-9.63
34.677,10.44,-22.47,1.96
34.706,1.61,-1.47,-1.34
34.707,4.67,7.65,1.87
34.718,7.31,8.78,-1.29
34.719,3.39,7.94,-8.00
34.740,0.62,6.40,-11.25
34.741,0.10,4.16,-9.77
34.750,1.15,2.71,-5.95
34.751,1.89,2.48,-2.40
34.781,1.78,3.25,0.02
34.783,1.02,3.08,1.01
34.790,-0.58,2.59,1.34
34.797,-3.32,2.35,0.86
34.819,-4.78,3.63,0.67
34.821,-5.87,3.12,2.67
34.830,-6.33,3.31,3.17
34.831,-6.34,4.67,2.96
34.850,-6.13,5.58,2.89
34.851,-5.27,4.29,2.83
34.869,-4.70,2.89,1.40
34.870,-3.79,2.10,0.99
34.889,-2.65,1.51,1.15
34.890,-2.30,0.78,1.18
34.911,-1.08,0.54,1.84
34.913,-0.02,-1.05,2.63
34.932,1.79,-0.64,4.17
34.933,1.35,0.38,1.86
34.952,0.07,0.59,-0.07
34.954,-0.46,0.78,1.08
34.972,-1.07,0.76,2.10
34.973,-1.80,0.01,2.57
34.992,-2.40,-0.25,2.90
34.993,-2.54,-0.28,2.82
35.022,-2.36,-0.95,1.67
35.023,-2.53,-1.83,1.00
35.032,-2.38,-2.75,1.00
35.049,-2.32,-3.65,2.42
35.055,-2.10,-4.35,4.25
35.057,-2.37,-4.29,3.79
35.076,-2.61,-4.07,2.36
35.077,-2.83,-3.90,0.90
35.092,-2.68,-3.20,-0.03
35.093,-2.84,-2.72,-0.34
35.113,-2.86,-2.40,0.03
35.114,-2.38,-1.94,1.16
35.132,-1.41,-1.58,2.29
35.133,-0.86,-1.72,2.59
35.163,-0.97,-0.83,1.80
35.164,-0.82,-0.03,-1.09
35.182,0.59,0.99,-2.89
35.184,2.54,3.04,-2.61
35.199,3.68,2.31,-2.52
35.201,4.93,0.20,-0.66
35.212,6.07,-1.66,-0.57
35.213,6.09,-3.60,-2.98
35.232,5.85,-5.63,-5.48
35.233,4.68,-6.47,-7.87
35.252,3.80,-4.91,-8.09
35.253,3.46,-4.01,-5.30
35.274,3.17,-3.79,-1.33
35.275,5.37,-3.60,1.68
35.297,6.07,-3.32,4.75
35.298,5.04,-2.38,2.84
35.315,4.73,-1.73,-1.17
35.316,3.81,0.49,-0.16
35.336,2.50,2.37,0.01
35.336,0.46,3.77,-2.83
35.358,-1.57,5.22,-1.56
35.359,-2.64,6.37,-0.82
35.376,-1.42,8.38,-1.80
35.377,-1.44,7.81,-0.90
35.404,-0.94,8.33,-0.62
35.406,-0.65,8.16,-1.01
35.417,-0.51,7.95,-2.08
35.417,-0.44,8.49,-1.85
35.436,-0.08,7.97,-3.28
35.437,1.94,7.71,-3.85
35.458,3.16,6.98,-3.24
35.461,3.41,6.45,-2.59
35.476,3.04,5.82,-2.55
35.477,2.42,4.82,-2.88
35.496,1.94,3.52,-2.80
35.498,1.15,2.36,-2.36
35.507,0.90,1.91,-1.53
35.525,0.31,2.00,-0.25
35.536,-0.35,2.08,1.36
35.536,-1.94,2.12,3.01
35.555,-2.86,1.95,4.43
35.556,-3.99,1.11,4.93
35.575,-5.53,-0.80,6.44
35.576,-5.40,-3.85,7.48
35.596,-5.34,-5.78,7.47
35.597,-4.70,-8.38,6.85
35.607,-4.03,-9.93,6.16
35.608,-3.39,-10.38,6.52
35.636,-4.11,-9.06,5.11
35.637,-4.23,-6.07,3.59
35.646,-3.38,-2.43,2.93
35.665,-3.22,0.74,3.63
35.686,-2.18,2.57,3.64
35.686,5.80,1.77,-2.32
35.705,7.77,-7.46,-3.83
35.706,6.10,-17.86,-1.75
35.715,7.14,-26.38,-9.84
35.716,9.81,-22.45,-7.53
35.737,4.53,-4.77,0.08
35.739,3.65,6.02,-5.53
35.756,9.76,8.08,-0.22
35.758,5.65,7.19,-6.01
35.777,0.89,5.38,-11.10
35.784,-0.44,4.26,-11.55
35.796,0.17,2.99,-8.39
35.797,1.93,2.27,-4.78
35.816,1.18,2.36,-3.03
35.817,0.06,2.93,-1.99
35.836,-0.97,2.96,-0.94
35.836,-2.17,2.45,0.66
35.856,-3.66,2.37,1.52
35.857,-4.70,2.98,2.11
35.876,-5.50,3.57,3.43
35.876,-5.75,3.63,4.29
35.897,-6.23,3.95,3.77
35.898,-5.42,3.78,4.08
35.916,-3.79,2.50,3.21
35.917,-3.15,1.76,3.54
35.939,-3.22,1.82,2.82
35.940,-3.03,2.19,1.96
35.956,-2.78,2.20,1.95
35.957,-2.17,2.09,1.83
35.976,-1.42,0.88,1.80
35.976,-0.53,-0.34,1.63
35.996,-0.25,0.34,0.51
35.996,-0.07,0.36,0.48
36.016,0.08,0.99,0.14
36.016,0.08,1.10,0.47
36.036,-0.27,0.12,1.02
36.049,-0.14,-0.50,1.45
36.066,0.04,-1.44,1.89
36.066,0.10,-1.54,2.09
36.076,-0.26,-1.58,2.98
36.077,-0.73,-1.61,3.68
36.096,-1.27,-2.39,3.43
36.097,-2.01,-3.36,2.09
36.116,-3.04,-3.82,1.71
36.117,-4.39,-3.63,1.18
36.125,-5.23,-3.04,0.75
36.135,-5.55,-2.49,1.19
36.156,-5.57,-2.05,1.49
36.157,-6.04,-2.05,1.28
36.176,-5.37,-1.97,1.57
36.179,-3.49,-2.06,1.88
36.196,-1.90,-1.89,1.72
36.197,-0.71,-1.33,1.19
36.216,-0.52,-0.85,-0.01
36.217,-0.23,-0.48,-1.87
36.226,1.69,1.64,-3.40
36.227,4.17,3.59,-4.65
36.255,4.48,4.40,-2.86
36.257,6.03,0.86,0.11
36.267,7.30,-2.25,0.87
36.269,7.04,-4.74,-2.10
36.285,5.86,-7.51,-4.22
36.286,5.86,-7.51,-4.22
36.306,4.78,-7.90,-6.26
36.306,5.35,-6.33,-3.89
36.326,5.58,-5.36,-0.59
36.327,5.96,-4.64,2.42
36.346,6.07,-3.68,3.27
36.347,5.58,-3.38,2.98
36.386,4.80,-0.03,-0.84
36.387,4.27,1.16,-1.90
36.388,3.85,1.18,-1.81
36.405,0.12,4.47,-4.02
36.406,-0.28,4.73,-1.35
36.415,-0.33,4.56,-1.24
36.435,-2.00,7.21,-2.04
36.436,-1.08,7.03,-0.65
36.445,-1.08,7.03,-0.65
36.455,-2.00,7.17,-1.49
36.456,-1.75,6.88,-1.47
36.476,-1.72,8.50,-3.54
36.477,-0.55,8.19,-3.23
36.505,1.27,7.68,-3.14
36.506,1.22,6.75,-3.45
36.520,4.07,5.87,-3.32
36.521,4.47,4.95,-2.97
36.546,4.08,4.17,-2.73
36.547,3.17,3.20,-2.76
36.566,2.18,2.46,-2.79
36.567,1.23,2.15,-2.34
36.575,0.83,2.27,-1.38
36.577,0.17,2.29,0.24
36.607,0.18,2.37,1.61
36.609,-0.82,2.25,3.34
36.626,-1.44,1.66,4.74
36.628,-2.52,0.76,5.65
36.636,-4.37,-1.86,6.97
36.637,-5.57,-5.77,8.19
36.655,-5.58,-8.41,8.25
36.657,-5.27,-10.68,7.91
36.686,-4.94,-11.64,5.44
36.687,-6.26,-10.07,7.02
36.696,-6.25,-6.88,4.03
36.697,-6.18,-2.90,2.86
36.733,-5.62,-0.11,3.87
36.734,-3.19,1.91,3.41
36.744,4.01,0.39,-2.40
36.745,4.90,-10.34,-0.31
36.778,4.79,-19.56,-4.19
36.780,8.51,-24.90,-10.52
36.785,8.34,-15.24,-5.64
36.787,6.21,4.36,-3.46
36.803,8.18,8.99,-1.13
36.805,7.03,8.45,-2.96
36.833,1.97,7.42,-8.60
36.834,-0.14,5.34,-12.39
36.843,0.14,3.62,-11.95
36.844,1.03,1.32,-7.93
36.863,1.68,0.82,-1.84
36.865,1.32,1.69,0.78
36.885,0.49,2.66,1.06
36.887,-0.79,2.97,0.73
36.908,-2.20,2.36,0.46
36.909,-2.79,1.75,0.98
36.916,-3.30,2.49,2.68
36.917,-3.73,2.83,3.71
36.936,-3.68,4.03,4.30
36.938,-3.17,4.38,3.64
36.956,-2.63,3.78,3.89
36.957,-2.97,2.52,2.15
36.976,-3.83,1.59,1.65
36.977,-3.82,1.92,0.81
36.995,-2.97,1.85,1.20
36.996,-2.80,1.75,1.85
37.017,-1.63,0.73,1.40
37.020,-0.88,-0.07,1.59
37.046,0.00,0.61,1.80
37.047,-0.28,0.06,1.17
37.057,-0.56,-0.07,1.57
37.058,-0.89,-0.33,2.16
37.087,-1.41,-0.04,2.26
37.088,-1.47,-0.33,2.27
37.096,-1.78,-0.90,2.44
37.097,-1.12,-0.29,2.20
37.117,-0.45,-1.50,1.35
37.118,0.02,-1.90,0.57
37.146,-0.28,-2.26,0.44
37.148,-1.34,-2.72,1.40
37.167,-2.62,-2.58,2.05
37.168,-3.13,-2.21,2.34
37.177,-3.22,-2.39,2.66
37.178,-3.55,-2.60,2.18
37.207,-4.03,-2.40,1.04
37.212,-4.87,-2.21,0.05
37.227,-5.38,-2.09,-0.31
37.228,-5.42,-2.45,0.86
37.246,-4.52,-2.36,1.54
37.247,-2.73,-2.58,1.77
37.266,-1.24,-2.42,1.46
37.268,-0.76,-1.81,-0.99
37.286,0.44,-0.96,-2.71
37.288,2.67,1.24,-3.51
37.295,3.41,1.71,-2.41
37.297,4.30,2.30,-0.48
37.316,4.62,0.60,-0.52
37.317,5.55,-2.73,-1.85
37.346,5.76,-5.31,-3.52
37.348,5.83,-7.13,-4.12
37.357,6.16,-7.20,-4.10
37.359,6.73,-4.98,-3.37
37.377,6.22,-3.71,-1.51
37.379,5.97,-3.16,-0.36
37.406,5.79,-2.66,1.48
37.409,5.01,-1.49,2.11
37.416,3.45,-0.50,-0.28
37.417,3.09,0.45,-1.37
37.447,1.70,2.28,0.53
37.451,0.55,3.97,-1.46
37.467,-0.18,4.84,-1.41
37.469,-0.71,5.24,-2.19
37.477,-1.01,7.81,-2.85
37.478,-0.83,7.54,0.15
37.497,-1.01,7.79,0.31
37.500,-0.38,7.11,-1.17
37.519,0.30,7.28,-0.94
37.521,0.10,7.47,-1.83
37.539,0.57,7.31,-1.84
37.543,-0.13,6.45,-1.18
37.560,0.78,5.55,-2.93
37.561,2.21,5.38,-2.97
37.579,2.89,4.92,-2.48
37.580,2.90,4.17,-2.00
37.600,2.33,3.36,-2.03
37.601,1.95,3.00,-1.91
37.620,1.56,2.51,-1.83
37.632,1.20,2.33,-1.56
37.641,0.41,2.27,-0.86
37.666,-0.67,2.03,0.20
37.667,-1.83,1.96,1.61
37.668,-3.51,2.38,2.87
37.679,-4.35,1.90,3.29
37.680,-4.12,0.54,4.31
37.699,-4.15,-2.25,5.79
37.701,-4.12,-4.42,6.94
37.719,-3.89,-6.58,6.80
37.720,-4.11,-9.00,7.16
37.739,-3.91,-10.44,6.96
37.740,-3.50,-10.57,5.81
37.759,-3.70,-8.15,4.21
37.760,-3.61,-4.74,2.60
37.780,-3.06,-0.86,2.38
37.781,-2.14,2.04,2.78
37.799,1.10,3.60,0.57
37.800,7.41,-0.08,-4.29
37.820,6.55,-11.55,-2.39
37.822,4.76,-20.37,-8.32
37.854,8.80,-25.30,-10.87
37.857,8.89,-18.10,-2.11
37.874,4.83,0.28,0.39
37.876,5.25,8.07,-2.03
37.883,6.50,8.00,-2.60
37.885,2.89,7.44,-8.46
37.904,0.96,5.92,-11.33
37.906,0.09,4.05,-9.60
37.924,0.03,2.70,-5.49
37.926,0.65,2.58,-2.60
37.944,0.36,2.11,-0.53
37.945,0.29,2.94,0.09
37.973,0.14,3.48,0.73
37.976,-1.99,3.06,0.89
37.984,-3.75,2.77,0.83
37.986,-4.92,3.63,2.34
38.003,-5.09,4.11,2.91
38.005,-5.50,3.85,3.09
38.034,-6.56,3.58,2.06
38.035,-7.59,2.93,1.19
38.044,-5.98,1.88,1.94
38.045,-3.96,2.12,2.05
38.063,-3.04,1.69,2.06
38.065,-1.65,1.83,2.32
38.083,-0.82,1.30,2.56
38.085,-0.32,0.88,2.80
38.103,0.50,0.28,2.25
38.106,1.21,-0.10,1.50
38.126,0.87,-0.01,1.16
38.127,0.26,0.85,1.06
38.145,-0.06,1.59,1.53
38.146,-0.13,1.21,2.09
38.156,-1.05,-0.13,2.41
38.157,-1.80,-1.37,2.07
38.187,-1.86,-1.61,1.63
38.188,-1.84,-2.28,1.86
38.196,-1.83,-2.79,1.99
38.197,-1.73,-3.43,2.34
38.227,-1.76,-3.55,2.34
38.228,-2.58,-3.62,2.26
38.237,-3.53,-3.46,2.07
38.238,-4.11,-2.82,1.42
38.260,-4.55,-2.44,0.99
38.261,-4.69,-2.21,0.57
38.280,-4.85,-2.12,0.61
38.283,-4.62,-2.25,1.12
38.301,-3.13,-2.03,1.68
38.303,-1.65,-2.24,1.79
38.321,-0.76,-2.20,0.90
38.323,-0.16,-1.88,-0.96
38.339,1.02,-0.78,-2.74
38.340,2.11,0.25,-3.87
38.359,3.80,0.75,-2.73
38.360,4.39,2.42,-0.64
38.379,4.86,1.24,0.81
38.381,5.65,-1.72,0.80
38.401,6.86,-3.86,-0.39
38.404,6.87,-5.11,-2.56
38.424,6.57,-6.05,-4.20
38.429,6.61,-5.28,-4.90
38.442,5.88,-3.42,-3.48
38.457,5.02,-2.53,-0.93
38.464,3.58,-2.09,1.43
38.465,2.98,-1.70,2.66
38.482,1.73,-1.32,0.06
38.483,1.67,-0.04,2.31
38.503,0.56,2.26,0.20
38.504,-1.04,2.51,-0.63
38.523,-1.30,2.98,-3.32
38.524,-0.54,4.60,-3.59
38.544,-0.25,6.70,-1.38
38.545,-0.54,7.36,-1.17
38.564,-0.34,7.67,-2.18
38.565,0.01,7.81,-2.02
38.585,-0.62,8.02,-1.49
38.586,-0.79,7.44,-2.06
38.604,-1.40,6.31,-1.38
38.606,-1.50,4.93,-2.71
38.629,0.40,4.58,-3.58
38.632,2.32,5.13,-3.75
38.649,3.67,5.48,-3.23
38.651,3.71,4.85,-2.85
38.663,3.38,3.99,-2.77
38.665,2.95,3.08,-2.70
38.699,2.92,2.57,-2.64
38.701,2.10,2.28,-1.97
38.704,1.32,2.24,-1.44
38.706,0.49,2.09,-0.26
38.723,-0.12,2.19,0.92
38.724,-0.85,2.24,2.46
38.744,-1.76,2.64,4.07
38.745,-2.57,1.73,5.28
38.762,-4.11,-0.08,6.48
38.763,-4.83,-3.95,7.59
38.782,-5.00,-6.36,7.80
38.784,-4.27,-8.91,7.73
38.814,-3.38,-10.82,6.81
38.817,-4.10,-10.77,7.92
38.824,-4.78,-10.05,6.41
38.826,-4.99,-5.97,3.19
38.844,-4.72,-1.45,2.81
38.846,-4.52,1.87,3.58
38.863,-0.30,3.13,0.64
38.865,7.10,-0.75,-3.55
38.877,3.80,-11.82,-1.84
38.879,4.63,-20.49,-7.69
38.905,8.84,-19.52,-11.57
38.907,8.46,-13.09,-2.17
38.916,5.84,-1.15,0.05
38.917,6.60,4.67,-1.08
38.948,6.26,5.48,-3.35
38.949,2.26,5.77,-9.11
38.966,-0.10,6.23,-11.28
38.969,-0.55,4.26,-9.32
38.986,0.51,3.42,-5.58
38.987,1.22,3.25,-3.47
39.007,1.21,3.58,-2.42
39.009,0.56,3.66,-1.58
39.026,0.04,2.59,0.34
39.028,-1.08,1.56,1.57
39.054,-3.05,1.86,1.64
39.055,-4.24,2.98,2.46
39.059,-4.71,3.53,2.70
39.061,-4.52,3.79,3.59
39.080,-5.38,3.67,3.74
39.083,-6.53,2.93,2.54
39.099,-6.11,2.46,1.48
39.101,-4.73,2.52,1.12
39.119,-3.47,2.48,1.11
39.120,-2.30,1.88,1.53
39.139,-1.00,0.66,2.30
39.140,-0.84,-0.53,2.55
39.160,-0.10,0.00,2.99
39.161,0.54,0.48,2.66
39.180,0.56,0.27,2.67
39.181,0.68,0.90,2.55
39.200,0.72,1.52,2.81
39.201,0.21,0.79,2.27
39.219,-0.53,0.37,1.34
39.220,-1.29,-0.41,0.84
39.250,-1.97,-1.05,0.71
39.252,-2.16,-1.70,1.07
39.260,-2.20,-2.63,1.32
39.261,-2.23,-3.32,1.45
39.280,-3.01,-3.43,2.09
39.283,-3.78,-3.17,3.00
39.300,-4.42,-3.24,2.68
39.303,-4.58,-3.00,1.89
39.320,-3.89,-2.79,1.19
39.325,-3.00,-2.35,0.41
39.349,-2.45,-2.19,-0.08
39.350,-2.16,-1.92,0.54
39.359,-1.34,-1.72,1.12
39.362,-0.28,-1.66,1.88
39.390,-0.07,-1.51,1.24
39.392,-0.08,-1.63,-0.58
39.399,0.53,-1.29,-2.57
39.400,1.82,0.66,-3.15
39.424,3.52,2.71,-1.60
39.426,4.45,1.41,0.22
39.450,5.41,-2.95,-0.64
39.451,5.62,-4.81,-1.73
39.459,4.78,-6.34,-4.16
39.460,4.16,-6.88,-4.97
39.479,4.05,-5.21,-4.91
39.481,3.77,-3.08,-3.77
39.500,2.56,-2.98,-0.66
39.501,3.00,-3.37,1.73
39.519,3.38,-2.62,2.48
39.521,2.88,-1.73,1.09
39.544,2.42,-0.66,-0.80
39.545,2.39,1.82,-2.24
39.563,0.98,1.70,-0.72
39.565,1.66,4.23,-1.22
39.583,1.09,5.49,-1.53
39.584,-0.56,6.15,-1.25
39.604,-0.83,6.95,-1.33
39.605,-0.72,6.71,-1.47
39.623,0.00,8.85,-2.59
39.624,0.37,8.19,-1.86
39.643,-0.68,7.35,-1.54
39.644,-1.24,6.31,-2.67
39.663,-0.34,7.18,-3.67
39.666,1.14,6.88,-2.92
39.695,3.28,7.39,-2.72
39.697,3.73,5.88,-2.18
39.703,3.94,4.81,-2.16
39.704,3.68,4.15,-1.99
39.722,3.14,3.31,-2.20
39.723,2.54,2.52,-2.24
39.742,1.87,2.43,-1.81
39.743,1.43,2.23,-0.71
39.763,0.67,2.05,0.58
39.764,-0.16,2.16,1.94
39.784,-0.62,2.20,3.25
39.785,-1.85,1.86,4.06
39.802,-2.98,0.57,4.89
39.804,-3.85,-2.52,5.84
39.823,-4.31,-5.53,6.41
39.824,-4.99,-7.95,6.93
39.843,-5.52,-10.33,7.21
39.845,-5.61,-11.43,6.46
39.856,-6.05,-10.83,6.25
39.857,-6.37,-7.13,4.13
39.876,-6.29,-3.36,2.86
39.877,-5.84,0.42,3.29
39.907,-2.95,2.05,2.92
39.908,3.68,-0.09,-2.49
39.926,5.07,-11.56,0.19
39.928,5.07,-11.56,0.19
39.947,10.31,-29.04,-9.15
39.949,8.71,-15.96,-5.63
39.968,8.46,-14.74,-5.51
39.970,10.23,9.24,-1.58
39.971,8.89,8.35,-2.91
40.000,4.53,7.55,-7.65
40.003,1.25,5.65,-11.07
40.010,0.32,4.89,-10.15
40.011,1.20,2.32,-5.60
40.029,1.20,2.32,-5.60
40.046,1.04,2.68,-2.35
40.048,-0.57,2.44,-1.41
40.059,-0.57,2.44,-1.41
40.069,-1.30,2.09,-0.38
40.071,-2.30,1.69,0.69
40.090,-2.90,1.91,1.29
40.099,-6.94,1.48,4.66
40.100,-7.42,2.45,6.34
40.119,-7.32,2.58,6.38
40.129,-5.43,4.58,5.57
40.130,-5.04,2.98,5.24
40.150,-4.34,2.75,0.53
40.153,-3.68,2.54,0.64
40.181,-3.20,2.64,0.86
40.183,-2.81,1.30,0.89
40.184,-1.58,-0.32,1.16
40.201,-0.70,-0.91,2.19
40.203,0.00,-0.24,3.30
40.220,0.79,0.08,4.35
40.222,1.18,0.00,3.99
40.241,1.28,-0.12,3.80
40.250,0.40,0.37,3.75
40.252,0.17,0.51,2.61
40.269,0.17,0.51,2.61
40.280,-1.05,-0.80,1.26
40.281,-0.97,-0.88,1.10
40.300,-1.46,-1.80,0.03
40.301,-2.32,-2.73,-0.12
40.319,-2.41,-2.72,0.04
40.330,-4.27,-2.91,2.71
40.331,-4.98,-2.83,3.76
40.350,-5.25,-2.66,3.10
40.351,-4.68,-2.48,1.60
40.370,-4.14,-2.11,0.23
40.371,-3.90,-1.90,-0.53
40.401,-3.67,-1.76,-0.73
40.402,-3.47,-1.60,-0.50
40.403,-2.48,-1.55,0.76
40.419,-2.14,-1.37,0.68
40.430,0.00,-1.40,0.02
40.431,0.27,-1.18,-0.06
40.450,1.55,0.05,-3.01
40.451,3.52,1.31,-2.14
40.469,3.66,1.50,-2.17
40.479,6.02,0.09,0.70
40.480,6.00,0.30,0.43
40.499,7.07,-5.80,-2.96
40.500,6.04,-7.58,-5.65
40.519,5.93,-7.31,-5.80
40.520,6.66,-5.87,-4.02
40.539,6.42,-4.38,-1.57
40.541,6.03,-4.05,-0.16
40.559,5.25,-3.93,1.64
40.560,4.90,-2.88,3.06
40.579,4.01,-1.15,1.96
40.580,3.61,-0.96,1.69
40.599,1.56,2.85,0.18
40.600,0.23,4.20,-0.59
40.619,0.06,4.10,-0.54
40.630,-1.72,5.31,-4.25
40.631,-2.30,6.93,-3.06
40.660,-2.19,6.68,-3.09
40.663,-1.25,8.02,-0.94
40.664,-1.01,7.70,-3.03
40.679,-0.80,7.35,-2.93
40.693,-1.15,8.07,-2.74
40.694,-1.06,7.47,-2.53
40.703,-1.06,7.47,-2.53
40.723,0.49,6.86,-3.51
40.725,2.60,6.60,-3.05
40.743,3.02,5.80,-1.95
40.745,3.02,4.97,-1.82
40.763,2.91,4.34,-2.05
40.764,3.05,4.01,-1.96
40.784,2.42,3.61,-1.52
40.785,1.56,2.89,-0.86
40.803,0.09,2.16,0.32
40.804,-1.28,1.68,1.72
40.823,-2.34,1.76,3.02
40.825,-2.91,1.63,4.06
40.845,-3.71,-0.42,5.63
40.847,-3.42,-4.42,7.38
40.853,-3.34,-4.22,7.27
40.873,-3.50,-8.16,7.53
40.875,-3.51,-9.43,6.88
40.894,-4.81,-10.10,6.69
40.897,-4.55,-10.24,6.08
40.915,-5.36,-7.45,3.86
40.916,-4.61,-3.70,2.19
40.933,-3.47,-0.23,2.26
40.934,-2.49,2.28,3.06
40.954,-0.13,3.63,1.16
40.955,5.49,1.55,-5.18
40.984,6.48,-7.11,-4.19
40.985,6.48,-7.11,-4.19
40.993,9.29,-23.10,-12.21
40.996,11.59,-19.16,-7.49
41.013,8.47,-6.54,3.20
41.015,7.99,-5.75,3.07
41.033,5.70,3.07,-2.53
41.038,5.24,3.35,-2.32
41.053,-0.21,5.89,-11.44
41.055,-1.03,4.44,-9.92
41.074,-0.52,2.53,-5.74
41.077,0.22,1.73,-3.80
41.094,0.55,2.54,-3.09
41.096,0.07,2.25,-2.36
41.116,-0.88,3.40,-0.22
41.117,-2.36,1.82,1.41
41.134,-4.12,2.37,2.00
41.135,-4.86,3.27,2.47
41.144,-4.86,3.27,2.47
41.164,-5.50,3.65,2.95
41.166,-5.44,3.82,2.92
41.183,-5.62,4.62,2.14
41.185,-5.74,2.46,0.78
41.203,-6.03,1.87,0.90
41.204,-6.03,1.87,0.90
41.224,-5.30,2.38,1.18
41.225,-4.85,2.19,1.37
41.242,-1.68,1.07,2.08
41.243,-0.26,-0.44,2.22
41.262,0.73,-0.34,3.01
41.264,1.12,-0.94,3.08
41.282,0.60,-1.09,2.73
41.284,-0.05,-0.72,2.03
41.303,-0.42,-0.06,2.34
41.304,-1.04,-1.03,2.21
41.312,-1.04,-1.03,2.21
41.344,-1.42,-1.11,1.96
41.345,-1.37,-1.84,1.63
41.353,-1.83,-2.43,1.27
41.355,-1.83,-2.43,1.27
41.373,-2.94,-2.96,1.37
41.375,-3.97,-2.95,2.76
41.394,-4.39,-2.73,2.48
41.396,-4.80,-2.60,1.57
41.413,-4.50,-2.18,0.79
41.415,-4.50,-2.18,0.79
41.439,-3.80,-2.00,0.13
41.440,-3.95,-1.42,-0.17
41.464,-3.92,-1.21,-0.16
41.465,-2.26,-0.72,0.84
41.473,-0.25,-0.69,1.76
41.474,0.86,-0.65,1.32
41.493,1.39,-0.79,-0.45
41.494,1.39,-0.79,-0.45
41.514,4.18,3.40,-2.97
41.516,4.74,3.44,-2.57
41.534,4.75,3.44,-2.65
41.544,6.92,-3.04,-0.98
41.545,6.59,-4.01,-3.25
41.563,5.18,-5.58,-5.26
41.564,4.66,-7.27,-5.61
41.582,4.57,-6.77,-4.49
41.584,4.57,-6.77,-4.49
41.602,6.06,-4.72,0.05
41.607,5.43,-5.16,2.22
41.624,5.07,-3.94,3.29
41.625,5.07,-3.94,3.29
41.643,4.00,1.28,-2.40
41.644,1.70,2.04,0.44
41.663,0.14,3.30,-0.52
41.664,-0.59,4.31,-1.86
41.693,-1.34,5.42,-3.85
41.694,-1.34,6.94,-1.88
41.703,-1.77,6.84,-1.61
41.704,-0.60,7.23,-0.52
41.723,-1.41,6.77,-0.96
41.728,-1.23,6.39,-1.39
41.744,-1.06,6.55,-2.08
41.746,-0.86,6.73,-1.91
41.765,-0.72,7.33,-2.48
41.767,1.00,6.70,-3.21
41.785,1.76,5.88,-3.00
41.789,3.23,5.54,-2.93
41.806,3.15,5.06,-2.74
41.807,2.85,4.39,-2.71
41.826,2.86,3.57,-2.68
41.827,2.80,3.55,-2.41
41.837,2.18,3.28,-1.71
41.838,1.47,2.75,-0.37
41.866,0.42,2.70,0.96
41.867,-0.34,2.76,2.36
41.886,-1.09,2.51,3.24
41.887,-1.15,1.07,3.78
41.907,-2.37,-2.06,5.46
41.908,-3.53,-5.58,7.84
41.916,-4.71,-8.00,8.11
41.918,-5.09,-10.21,8.33
41.947,-5.02,-10.91,6.96
41.950,-6.09,-10.38,7.44
41.968,-6.59,-8.69,4.77
41.970,-5.61,-4.67,2.80
41.979,-4.88,-1.19,1.95
41.980,-4.90,1.56,3.37
41.997,-2.59,3.13,1.58
41.998,4.04,0.64,-3.75
42.026,4.64,-10.05,0.19
42.028,4.57,-17.95,-3.99
42.053,8.28,-22.94,-9.45
42.054,10.57,-20.09,-1.80
42.066,6.55,0.62,-4.28
42.067,7.03,5.94,-2.88
42.085,5.95,7.21,-4.45
42.086,2.68,7.19,-9.19
42.095,1.09,5.75,-11.10
42.096,1.04,4.17,-9.60
42.116,1.50,2.75,-6.26
42.118,1.40,2.56,-3.87
42.137,0.98,3.51,-2.54
42.138,0.59,4.01,-1.17
42.157,0.69,2.96,1.86
42.159,0.13,2.41,2.92
42.177,-2.63,2.44,2.62
42.178,-4.05,2.91,3.19
42.208,-4.51,3.70,3.77
42.209,-4.80,3.78,3.78
42.226,-5.82,4.53,2.82
42.227,-6.52,3.64,2.29
42.246,-6.25,2.62,1.87
42.247,-5.59,2.05,1.57
42.266,-4.61,2.44,0.69
42.267,-4.22,1.55,0.53
42.276,-3.18,0.56,1.46
42.277,-1.88,-1.50,2.13
42.308,-0.62,-1.00,2.28
42.309,0.12,-0.12,2.68
42.327,1.01,0.64,3.36
42.329,0.85,0.77,3.04
42.337,0.53,0.58,2.88
42.339,0.03,0.88,2.90
42.363,-0.65,0.07,2.28
42.365,-1.07,-0.53,1.61
42.376,-1.42,-1.15,0.97
42.377,-1.72,-2.03,0.39
42.395,-1.94,-2.71,0.63
42.397,-2.02,-2.81,0.99
42.417,-2.25,-3.12,1.42
42.418,-2.77,-3.59,2.44
42.446,-3.18,-3.54,2.75
42.447,-3.50,-3.23,2.59
42.456,-3.50,-2.74,2.12
42.457,-3.18,-2.46,0.83
42.476,-3.05,-2.28,-0.30
42.479,-3.14,-2.28,-0.39
42.506,-2.55,-1.78,0.21
42.508,-0.99,-1.57,1.46
42.520,0.23,-1.67,2.07
42.521,0.09,-1.30,0.96
42.539,0.18,-0.73,-1.19
42.540,1.30,-0.07,-2.31
42.559,3.17,3.22,-2.30
42.560,4.73,2.64,-0.87
42.579,4.94,0.32,-0.21
42.580,6.59,-3.38,-1.06
42.599,6.30,-4.00,-2.13
42.600,5.47,-4.69,-4.44
42.619,4.86,-5.66,-5.75
42.620,4.95,-4.90,-5.07
42.640,3.94,-3.56,-2.62
42.645,2.87,-4.01,-0.87
42.660,2.71,-5.14,1.32
42.663,2.69,-4.91,2.35
42.680,3.41,-0.79,2.29
42.681,3.95,1.21,0.13
42.701,2.14,1.96,0.05
42.702,1.93,3.69,-2.75
42.719,1.17,4.36,-3.84
42.720,-0.04,5.66,-2.81
42.749,-1.38,7.14,-1.73
42.750,-0.69,7.64,-1.35
42.769,-0.33,8.28,-2.32
42.777,-0.46,8.36,-2.04
42.779,-1.04,8.37,-1.97
42.780,-1.62,7.55,-1.99
42.798,-2.09,7.18,-2.21
42.800,-0.47,6.81,-2.69
42.819,1.08,6.51,-3.95
42.820,3.00,6.05,-2.81
42.839,3.74,5.50,-2.97
42.840,3.48,5.18,-3.10
42.859,3.16,4.54,-3.05
42.860,2.39,3.24,-2.66
42.879,1.91,2.78,-2.39
42.880,1.45,2.40,-1.38
42.899,0.66,2.18,0.08
42.900,0.15,1.97,1.35
42.919,-0.55,1.83,2.82
42.920,-1.39,1.30,3.84
42.951,-2.18,0.72,4.89
42.953,-3.48,-2.36,7.46
42.960,-4.34,-7.66,9.66
42.964,-5.31,-10.31,8.99
42.980,-5.57,-12.42,10.23
42.985,-5.64,-13.48,8.07
43.011,-5.70,-11.36,8.14
43.013,-6.03,-7.73,4.55
43.019,-4.64,-3.37,3.10
43.020,-3.52,0.51,2.24
43.050,-2.76,3.08,3.39
43.053,0.74,3.46,2.33
43.059,3.22,1.15,-3.84
43.061,2.03,-8.30,-4.16
43.079,3.16,-16.46,-7.46
43.081,7.42,-19.83,-12.78
43.099,9.88,-14.99,-10.12
43.101,10.63,-2.15,3.61
43.119,7.85,7.30,0.83
43.120,7.15,6.73,-0.52
43.140,2.86,6.35,-6.61
43.141,0.63,5.90,-10.64
43.159,-0.10,4.50,-9.77
43.161,-0.59,2.33,-6.02
43.179,0.16,1.35,-2.73
43.180,0.30,2.42,-1.42
43.210,0.00,2.83,-0.95
43.211,-0.44,2.26,0.06
43.220,-1.04,1.94,0.76
43.221,-2.39,2.16,0.97
43.249,-3.43,2.87,1.54
43.250,-3.76,3.18,2.76
43.260,-3.79,3.29,2.88
43.261,-4.71,2.90,3.70
43.282,-4.92,2.38,3.69
43.286,-5.39,2.32,1.72
43.301,-5.26,2.98,-0.13
43.303,-4.61,3.14,-0.64
43.320,-3.04,1.82,0.08
43.321,-1.79,0.75,1.16
43.340,-0.90,-0.42,2.17
43.341,-0.38,-0.82,2.52
43.359,0.62,0.01,3.37
43.360,1.34,0.51,3.44
43.379,0.80,0.53,3.44
43.380,0.60,1.18,3.23
43.400,-0.25,0.66,2.04
43.401,-1.32,0.40,1.51
43.420,-1.66,0.09,0.91
43.422,-1.71,-0.37,0.61
43.441,-1.91,-1.96,0.71
43.449,-2.37,-2.75,1.13
43.469,-2.01,-2.85,1.36
43.470,-2.39,-2.96,1.91
43.479,-2.88,-3.00,3.06
43.481,-3.54,-3.33,3.29
43.501,-4.46,-3.42,2.61
43.503,-5.05,-3.13,1.64
43.519,-4.79,-2.47,1.04
43.521,-4.05,-2.06,0.67
43.539,-4.05,-2.06,0.67
43.550,-3.25,-1.13,0.27
43.551,-1.77,-0.81,1.44
43.570,-1.77,-0.81,1.44
43.580,0.51,-1.18,1.92
43.581,0.75,-0.95,1.73
43.600,0.61,-1.62,-2.37
43.602,2.63,1.69,-3.85
43.621,2.73,1.88,-3.92
43.641,5.69,0.85,-0.39
43.642,5.61,1.06,-0.70
43.653,6.87,-4.17,-2.86
43.654,6.73,-3.83,-3.01
43.670,4.09,-8.71,-5.61
43.671,3.45,-6.23,-4.99
43.690,3.45,-6.23,-4.99
43.700,2.67,-3.60,-0.55
43.701,2.72,-3.98,2.85
43.712,2.72,-3.98,2.85
43.733,2.53,-3.14,0.30
43.734,3.30,0.59,2.66
43.753,2.01,1.17,0.89
43.754,2.44,2.68,-1.39
43.784,1.94,5.04,-1.15
43.785,0.63,5.99,-1.91
43.786,0.63,5.99,-1.91
43.802,-1.12,7.15,-2.21
43.804,-0.59,8.38,-3.09
43.813,-0.59,8.38,-3.09
43.833,-0.59,8.37,-1.00
43.837,-0.38,8.05,-1.03
43.853,-2.43,7.38,-2.74
43.854,-1.74,6.50,-3.94
43.864,-1.74,6.50,-3.94
43.894,4.68,7.69,-3.86
43.896,4.97,6.57,-2.77
43.914,4.16,4.76,-2.70
43.916,4.16,4.76,-2.70
43.925,4.18,3.90,-3.03
43.927,3.41,3.54,-2.42
43.943,2.53,3.05,-1.38
43.945,1.63,2.76,0.00
43.972,0.40,2.55,1.48
43.973,-0.40,2.42,2.74
43.982,-1.02,2.47,3.33
43.984,-1.06,2.21,3.41
44.004,-1.48,-0.17,4.99
44.005,-2.80,-4.40,7.01
44.024,-5.18,-7.38,7.92
44.026,-6.66,-8.34,8.67
44.044,-7.58,-12.43,9.28
44.045,-8.78,-11.83,7.37
44.062,-8.00,-9.07,5.69
44.064,-8.00,-9.07,5.69
44.083,-5.23,-0.11,1.63
44.084,-3.71,2.33,3.18
44.112,0.09,2.36,1.68
44.114,0.42,2.43,1.29
44.131,1.80,-14.02,-6.05
44.132,2.14,-13.08,-6.00
44.151,10.26,-22.38,-8.68
44.153,10.06,-20.86,-8.39
44.170,7.98,3.72,-0.79
44.172,8.09,8.28,-2.29
44.180,5.10,8.33,-5.80
44.182,5.10,8.33,-5.80
44.200,1.07,5.28,-11.85
44.201,1.62,2.92,-9.99
44.219,2.29,1.95,-4.71
44.221,2.09,2.49,-1.91
44.239,2.09,2.49,-1.91
44.250,2.06,4.88,-0.52
44.250,1.33,4.43,0.16
44.271,-0.56,2.47,2.59
44.273,-3.18,2.67,1.48
44.291,-4.29,3.07,1.72
44.292,-4.48,3.07,2.63
44.310,-5.63,3.65,2.45
44.312,-6.14,3.20,2.80
44.337,-6.19,2.51,2.77
44.339,-6.40,3.81,0.76
44.341,-5.71,2.84,0.29
44.359,-5.29,2.66,0.58
44.370,-2.93,1.90,1.82
44.371,-2.51,1.95,1.99
44.390,-0.88,0.41,2.20
44.391,0.08,-0.48,2.38
44.418,0.14,-0.61,2.08
44.419,1.85,-1.10,2.51
44.420,1.25,-0.57,2.79
44.435,0.53,0.07,2.65
44.436,0.53,0.07,2.65
44.465,-0.26,0.41,2.31
44.466,-0.12,0.28,2.31
44.477,-0.68,-0.99,1.35
44.478,-0.69,-1.04,1.32
44.506,-0.89,-1.90,1.30
44.507,-1.08,-2.65,1.46
44.516,-1.63,-3.01,1.68
44.517,-1.72,-2.94,1.65
44.548,-3.70,-3.01,2.84
44.550,-4.16,-2.89,2.73
44.568,-4.14,-2.62,2.49
44.570,-3.94,-2.15,1.39
44.571,-3.80,-1.90,1.21
44.588,-4.41,-1.56,-0.01
44.590,-4.50,-1.27,-0.14
44.607,-3.49,-1.12,0.02
44.609,-1.96,-1.25,0.97
44.627,-0.55,-1.24,1.52
44.628,0.24,-1.25,0.73
44.649,0.71,-1.05,-0.98
44.650,1.40,0.00,-2.50
44.666,3.45,2.80,-2.58
44.667,4.92,3.02,-1.01
44.687,4.92,3.02,-1.01
44.706,6.86,-4.63,-1.49
44.707,6.80,-4.26,-1.69
44.716,6.16,-5.45,-4.91
44.717,6.12,-5.06,-4.90
44.736,6.52,-5.49,-4.32
44.737,6.26,-5.12,-4.20
44.767,4.81,-3.66,-0.18
44.770,4.24,-3.25,2.27
44.788,3.64,-1.86,3.00
44.790,3.64,-1.86,3.00
44.797,2.84,1.20,0.23
44.799,1.90,2.96,0.84
44.828,0.85,3.89,0.15
44.830,-0.37,4.70,-3.39
44.837,-0.93,7.39,-4.37
44.839,-1.60,8.13,-1.25
44.857,-1.15,7.52,-0.34
44.861,-1.42,6.81,-1.18
44.885,-1.27,6.61,-1.31
44.887,-1.66,6.87,-2.94
44.888,-0.77,6.85,-2.96
44.906,-1.06,6.62,-1.52
44.908,0.06,6.48,-2.61
44.926,0.06,6.48,-2.61
44.945,3.35,5.06,-2.72
44.948,4.34,4.40,-2.84
44.955,4.16,3.70,-2.82
44.966,4.21,3.33,-2.70
44.967,3.98,2.64,-2.49
44.986,3.35,2.46,-1.95
44.987,2.95,2.30,-1.19
45.007,2.04,2.26,-0.16
45.008,0.70,2.21,1.43
45.028,-0.25,2.18,2.44
45.053,-0.97,1.87,3.24
45.054,-2.11,1.18,4.22
45.055,-4.70,-1.15,6.02
45.066,-4.67,-1.11,5.99
45.085,-7.17,-8.34,9.44
45.087,-6.97,-10.98,10.19
45.096,-5.30,-11.91,7.39
45.097,-5.07,-9.89,7.87
45.126,-4.24,-7.85,4.37
45.127,-2.27,-3.34,1.50
45.147,-1.29,-0.40,1.77
45.148,-0.78,1.48,3.44
45.156,1.48,0.44,2.02
45.157,1.85,-4.01,-3.86
45.186,1.00,-12.76,-4.87
45.187,4.97,-20.17,-6.28
45.196,8.13,-21.37,-6.82
45.198,9.20,-10.67,-2.10
45.216,8.86,-9.63,-2.10
45.227,7.94,9.43,-1.14
45.228,4.70,8.11,-5.37
45.247,0.88,6.81,-10.46
45.249,-0.72,5.96,-11.57
45.270,-1.24,4.67,-10.29
45.272,0.12,3.93,-6.93
45.289,-0.33,3.67,-5.90
45.300,0.61,3.88,-0.94
45.301,0.38,4.27,0.79
45.320,-0.90,3.53,2.04
45.321,-2.38,3.68,1.54
45.338,-3.53,3.90,1.90
45.340,-4.05,4.09,2.36
45.359,-5.06,3.77,3.36
45.360,-5.15,3.59,4.40
45.380,-5.86,3.09,4.18
45.382,-6.46,2.26,3.26
45.400,-5.73,2.45,2.37
45.401,-4.37,3.08,1.79
45.419,-2.52,1.92,1.79
45.420,-1.04,1.41,2.50
45.439,0.25,0.71,2.39
45.441,0.10,-0.21,2.85
45.459,0.06,-0.57,2.86
45.461,0.21,-0.39,2.40
45.479,0.39,0.08,1.74
45.480,0.30,0.46,1.51
45.500,0.11,0.87,1.45
45.501,-0.30,0.98,1.19
45.520,-0.68,0.63,1.13
45.521,-0.91,-0.46,1.14
45.550,-0.81,-1.15,1.25
45.552,-0.66,-1.46,1.32
45.560,-1.16,-2.13,1.43
45.561,-1.42,-2.32,1.52
45.580,-1.68,-2.77,1.27
45.581,-2.81,-3.42,1.46
45.610,-4.07,-3.41,2.19
45.612,-5.45,-3.18,2.22
45.620,-6.13,-2.85,1.47
45.623,-5.37,-2.31,1.06
45.640,-4.75,-2.49,1.03
45.642,-3.86,-2.50,0.89
45.659,-3.50,-2.31,0.78
45.670,-0.78,-1.87,2.73
45.671,0.05,-2.07,2.76
45.690,0.65,-1.91,1.39
45.691,0.84,-1.96,-0.92
45.711,2.85,2.49,-2.77
45.712,2.57,2.12,-2.91
45.731,3.88,-1.36,-1.15
45.732,6.34,-3.07,-0.53
45.750,7.42,-3.60,-1.12
45.752,7.23,-5.21,-3.20
45.773,6.45,-6.03,-5.39
45.775,5.41,-3.59,-6.45
45.790,4.49,-1.08,-5.70
45.792,2.92,-1.10,-2.65
45.810,2.75,-1.98,0.53
45.811,4.31,-3.47,2.85
45.830,3.22,-1.88,1.87
45.831,1.63,0.35,-1.76
45.850,1.57,1.58,1.42
45.852,0.40,2.92,1.32
45.871,0.58,3.34,-1.79
45.872,-0.07,5.43,-2.37
45.890,-1.35,6.63,-1.48
45.891,-1.79,7.13,-0.69
45.911,-1.15,7.52,-0.84
45.913,-0.90,7.14,-2.32
45.931,-0.26,5.94,-2.91
45.932,-1.20,5.84,-0.40
45.953,-1.25,4.64,-2.00
45.956,-0.64,5.93,-3.86
45.972,0.60,6.67,-4.73
45.973,2.42,5.66,-4.03
46.003,4.33,4.98,-4.01
46.005,5.08,5.08,-3.62
46.013,4.56,4.53,-2.67
46.019,4.55,4.07,-2.24
46.043,3.43,4.03,-1.70
46.048,2.20,3.94,-1.40
46.053,0.18,3.29,-0.61
46.055,-0.87,2.87,0.91
46.074,-1.06,2.86,2.46
46.076,-0.89,2.42,3.27
46.093,-1.18,0.92,4.13
46.094,-2.68,-3.22,7.31
46.112,-4.10,-7.15,9.94
46.114,-4.78,-9.27,9.76
46.134,-4.70,-9.91,9.48
46.135,-5.10,-10.05,5.77
46.154,-6.47,-8.87,6.18
46.156,-6.39,-6.94,3.36
46.173,-5.48,-2.80,2.58
46.174,-4.33,0.67,2.38
46.194,-2.86,1.64,4.17
46.199,0.80,-0.23,-0.14
46.213,-0.25,-8.33,-4.66
46.214,0.37,-17.99,-7.41
46.235,6.56,-25.13,-9.51
46.242,11.43,-19.42,-7.44
46.253,12.66,-4.62,9.09
46.254,9.28,7.27,-0.02
46.273,7.23,7.73,-2.95
46.274,2.49,6.67,-7.40
46.293,0.50,5.88,-10.83
46.294,0.20,4.79,-10.65
46.306,0.65,3.43,-7.08
46.307,1.39,3.17,-3.80
46.333,0.93,3.81,-2.62
46.335,0.50,4.90,-2.94
46.353,-0.14,4.87,-2.26
46.356,-0.43,3.41,-0.46
46.373,-0.61,2.26,0.53
46.374,-1.48,2.31,1.46
46.393,-3.48,3.21,3.05
46.394,-4.92,3.00,4.08
46.413,-5.46,3.00,4.10
46.414,-6.05,2.71,3.74
46.433,-6.20,2.05,2.96
46.434,-5.84,2.16,0.70
46.480,-4.41,2.13,0.70
46.481,-3.58,1.43,0.76
46.485,-1.62,0.36,1.41
46.487,-0.25,0.01,2.68
46.493,0.62,-0.50,2.97
46.494,0.95,0.04,2.82
46.513,0.94,0.74,2.66
46.514,0.97,0.57,2.51
46.533,-0.21,1.37,2.03
46.535,-1.08,1.22,1.54
46.555,-1.39,0.91,1.29
46.556,-1.37,0.11,1.18
46.573,-1.31,-0.65,1.23
46.574,-1.26,-1.14,1.56
46.593,-0.91,-1.68,1.97
46.594,-0.83,-2.19,1.90
46.614,-1.13,-2.57,1.77
46.615,-2.02,-3.12,1.58
46.633,-3.51,-3.52,2.05
46.634,-4.52,-3.43,1.85
46.645,-4.92,-3.26,1.66
46.646,-4.28,-2.68,1.50
46.675,-4.05,-2.70,1.25
46.679,-4.10,-2.75,0.87
46.693,-3.73,-2.23,1.15
46.694,-2.50,-1.88,1.75
46.724,-1.34,-1.94,1.18
46.726,-0.16,-2.05,0.04
46.733,0.50,-1.91,-1.42
46.734,1.58,-1.20,-3.41
46.754,2.59,1.97,-2.88
46.755,3.61,2.64,-2.11
46.775,3.95,-1.27,-0.32
46.777,5.25,-3.83,-0.98
46.794,5.69,-4.60,-0.59
46.796,6.10,-5.17,-2.40
46.819,6.40,-5.62,-4.62
46.820,6.49,-5.08,-4.92
46.833,6.09,-3.38,-3.61
46.834,4.63,-2.46,-1.26
46.843,4.29,-2.24,-1.31
46.863,3.80,-2.11,3.16
46.867,4.08,0.67,2.16
46.893,2.89,1.89,-1.22
46.895,0.93,2.29,0.29
46.913,0.32,3.21,-0.24
46.915,0.07,4.01,-2.44
46.924,-0.84,5.50,-3.30
46.925,-1.28,6.39,-2.89
46.943,-1.17,6.72,-0.63
46.947,-0.78,7.26,-0.79
46.962,-1.32,6.53,-1.51
46.963,-1.17,6.15,-1.52
46.985,-1.74,6.36,-2.33
46.986,-1.96,6.64,-2.13
47.004,-1.84,6.23,-2.84
47.005,-0.42,5.79,-3.18
47.015,-0.20,5.01,-3.36
47.035,4.47,6.01,-2.84
47.050,4.30,5.34,-2.30
47.060,3.83,4.64,-2.19
47.061,3.20,3.89,-2.28
47.073,3.22,3.55,-2.04
47.074,2.16,2.90,-1.63
47.096,1.30,2.60,-0.73
47.098,0.38,2.41,0.59
47.123,-0.98,2.34,2.24
47.124,-2.04,2.59,3.40
47.133,-2.62,2.14,4.05
47.134,-3.54,-0.11,5.57
47.153,-3.52,-4.66,7.11
47.154,-3.98,-7.53,8.61
47.174,-3.86,-10.19,8.73
47.176,-2.41,-11.90,8.56
47.203,-3.54,-11.55,8.35
47.204,-4.90,-11.47,6.69
47.223,-4.90,-6.72,3.61
47.223,-4.74,-2.51,2.32
47.232,-3.19,1.36,2.61
47.233,-0.48,3.33,3.73
47.254,2.92,0.98,0.13
47.255,-0.08,-6.87,-3.63
47.273,0.60,-15.92,-7.01
47.274,5.80,-24.25,-9.10
47.294,7.86,-22.72,-12.92
47.296,8.74,-2.52,-4.27
47.314,9.12,10.25,4.22
47.315,10.69,11.15,0.28
47.333,4.83,9.74,-5.54
47.335,0.52,7.21,-9.56
47.365,-0.65,5.19,-11.29
47.367,-1.12,3.46,-8.93
47.383,-0.11,2.18,-5.19
47.384,0.78,2.14,-2.36
47.393,0.51,2.63,-1.31
47.394,0.41,1.94,0.28
47.413,-0.45,1.06,2.40
47.414,-2.07,1.53,2.30
47.433,-3.59,2.43,1.71
47.434,-4.06,2.91,1.99
47.453,-3.56,3.10,3.10
47.454,-3.59,3.09,3.37
47.473,-5.05,2.10,3.47
47.475,-5.61,0.99,2.11
47.493,-5.95,0.80,0.02
47.494,-5.78,1.70,-0.30
47.513,-4.02,2.51,0.35
47.514,-2.48,2.19,0.62
47.533,-1.19,1.17,1.37
47.534,-0.18,-0.13,2.17
47.553,0.60,-1.01,2.47
47.554,0.56,-1.04,2.19
47.573,2.12,0.37,3.21
47.574,1.22,0.83,2.75
47.593,0.45,1.28,1.76
47.594,0.56,1.12,1.68
47.613,0.28,0.96,1.77
47.614,-0.05,0.55,1.46
47.634,-0.28,0.03,0.97
47.635,0.51,-0.69,-1.44
47.664,0.49,-1.30,-0.91
47.665,-0.05,-1.78,-0.31
47.674,-0.76,-1.95,-0.07
47.676,-1.99,-2.01,0.50
47.694,-3.19,-2.02,1.15
47.695,-4.10,-2.13,0.75
47.703,-4.08,-1.90,0.66
47.736,-5.04,-0.83,-0.46
47.737,-4.34,-0.73,-0.63
47.738,-4.34,-0.73,-0.63
47.753,-3.56,-1.84,0.32
47.754,-2.10,-1.63,1.21
47.773,-1.17,-1.80,1.56
47.774,-1.17,-1.80,1.56
47.793,-0.35,-3.21,-0.81
47.794,0.84,-2.29,-2.73
47.813,1.88,-1.36,-3.38
47.815,2.51,0.87,-1.65
47.833,3.79,2.66,-0.79
47.834,4.34,-1.55,0.65
47.853,6.01,-3.74,0.75
47.854,7.46,-4.83,-0.53
47.873,7.68,-5.44,-2.61
47.873,7.32,-5.93,-4.48
47.903,6.93,-4.84,-4.82
47.905,6.32,-3.30,-2.79
47.906,5.97,-3.08,-2.77
47.939,4.86,-2.28,1.57
47.941,4.25,-1.94,2.73
47.977,3.62,-0.86,1.30
47.979,1.86,1.52,-1.22
47.981,1.86,1.52,-1.22
47.983,-0.94,3.04,-0.82
47.985,-1.63,3.69,-1.75
47.987,-1.96,3.71,-2.14
47.988,-1.96,3.71,-2.14
48.006,-0.82,6.28,-1.76
48.007,-1.20,6.24,-1.14
48.026,-1.12,6.08,-1.20
48.035,-0.51,5.07,-2.80
48.036,0.33,5.63,-2.27
48.066,0.51,6.15,-2.32
48.067,-0.33,5.88,-1.76
48.085,0.13,5.17,-2.55
48.086,1.57,5.10,-2.60
48.095,2.48,4.94,-2.67
48.097,3.03,4.80,-2.33
48.130,2.45,3.99,-2.03
48.131,2.30,3.38,-1.84
48.135,1.89,3.39,-1.44
48.136,1.29,3.06,-1.08
48.155,0.25,2.55,-0.54
48.157,-0.76,2.38,0.40
48.185,-1.86,2.41,1.23
48.187,-3.21,2.13,1.92
48.205,-3.70,1.64,2.48
48.206,-4.33,-0.65,4.08
48.215,-4.77,-3.75,6.57
48.217,-4.66,-6.70,8.47
48.237,-4.35,-8.70,9.06
48.239,-4.12,-10.33,8.86
48.256,-3.68,-11.33,7.05
48.258,-3.48,-10.38,6.17
48.277,-3.33,-7.81,2.76
48.279,-3.48,-4.05,2.47
48.296,-2.42,-0.61,3.11
48.297,0.14,0.98,4.01
48.316,2.08,-0.82,0.67
48.317,0.00,-7.38,-2.26
48.336,0.43,-14.81,-3.90
48.338,3.77,-21.21,-7.85
48.359,6.83,-18.11,-11.38
48.360,6.75,-16.72,-10.90
48.379,11.05,10.56,4.77
48.380,11.42,10.30,-0.48
48.399,4.97,7.95,-7.37
48.401,1.12,6.80,-10.61
48.419,-0.02,5.49,-10.73
48.420,-0.97,4.19,-9.03
48.440,0.15,3.68,-6.08
48.442,-0.10,3.50,-5.15
48.471,0.70,4.71,-1.82
48.472,0.20,5.45,-1.09
48.481,-0.29,4.76,1.03
48.482,-1.49,3.41,2.26
48.496,-2.84,3.59,2.48
48.498,-3.25,4.04,2.76
48.517,-3.29,3.86,3.69
48.518,-3.29,3.86,3.69
48.546,-3.25,3.74,4.51
48.547,-3.35,2.76,3.44
48.567,-3.98,2.03,2.74
48.568,-3.78,0.89,2.41
48.586,-4.18,2.72,0.87
48.588,-3.59,2.82,1.16
48.596,-3.04,2.24,0.88
48.597,-1.93,1.11,1.63
48.618,-0.54,0.43,1.29
48.620,-0.54,0.31,1.05
48.647,1.45,0.13,2.24
48.649,1.35,-0.10,2.45
48.656,1.17,0.45,3.07
48.658,0.64,0.71,3.04
48.687,-0.03,-0.01,2.75
48.688,-0.67,-0.41,2.60
48.697,-1.18,-0.65,2.57
48.698,-1.41,-0.94,1.99
48.716,-1.45,-1.22,1.25
48.717,-1.59,-1.20,0.91
48.737,-1.51,-1.54,0.89
48.738,-2.19,-2.35,1.38
48.756,-2.59,-2.64,1.97
48.758,-2.84,-2.42,2.07
48.777,-3.55,-2.04,1.78
48.778,-4.60,-1.54,1.08
48.806,-5.17,-1.02,0.21
48.809,-5.96,-1.14,-1.49
48.826,-6.25,-1.24,-0.52
48.828,-6.25,-1.24,-0.52
48.846,-2.89,-1.60,2.17
48.847,0.12,-2.33,2.44
48.867,1.38,-2.52,1.66
48.868,2.45,-1.41,-0.65
48.876,2.83,1.00,-2.60
48.877,3.49,0.94,-4.02
48.907,4.57,-1.08,-1.10
48.909,6.55,-2.67,1.15
48.917,7.49,-4.29,0.66
48.918,7.43,-5.50,-2.06
48.936,7.33,-6.46,-5.12
48.938,7.33,-6.06,-6.83
48.956,6.90,-4.71,-5.53
48.957,6.37,-3.43,-2.26
48.976,5.95,-2.51,1.19
48.978,5.42,-2.05,3.69
49.006,4.30,-1.52,3.83
49.008,3.23,-1.08,1.04
49.027,0.63,0.80,-3.14
49.028,-1.32,0.40,-2.16
49.042,-1.29,1.85,0.50
49.043,-1.98,3.84,0.72
49.056,-2.41,4.97,-2.29
49.057,-1.57,6.06,-3.71
49.086,-1.71,6.11,-3.19
49.087,-1.83,6.84,-2.04
49.107,-1.39,5.87,-3.93
49.109,-0.94,8.16,-1.53
49.116,-1.55,6.81,-2.22
49.118,-0.14,6.61,-2.84
49.146,1.07,6.31,-3.08
49.147,1.64,5.40,-3.06
49.165,1.97,4.64,-2.43
49.167,1.96,4.00,-2.86
49.175,1.91,3.81,-2.62
49.177,1.38,3.93,-1.90
49.206,1.27,3.73,-1.35
49.208,0.79,3.82,-1.11
49.226,-0.15,4.04,-0.70
49.228,-0.53,3.64,-0.09
49.235,-1.06,3.04,0.91
49.236,-0.92,3.18,1.98
49.267,-1.61,2.98,2.41
49.268,-2.23,1.60,3.84
49.287,-3.46,-0.56,5.44
49.288,-3.80,-4.93,8.55
49.307,-4.32,-9.11,9.41
49.309,-3.37,-11.61,9.18
49.327,-4.91,-13.35,10.67
49.329,-5.34,-14.35,5.74
49.337,-7.35,-11.79,6.48
49.340,-6.16,-6.55,3.83
49.367,-4.91,-1.68,3.33
49.369,-5.70,1.28,4.64
49.388,-0.99,3.59,-2.33
49.389,8.74,0.83,-6.05
49.405,7.09,-8.46,-0.22
49.407,8.61,-15.76,-4.98
49.415,12.42,-21.68,-7.99
49.418,12.88,-22.06,0.91
49.436,6.80,-0.93,-2.48
49.438,7.55,7.92,-3.51
49.456,6.46,6.09,-3.92
49.457,2.01,6.40,-8.88
49.476,-0.11,6.32,-11.92
49.477,0.53,5.62,-8.88
49.495,1.48,5.07,-5.89
49.496,1.38,4.77,-5.09
49.515,0.95,4.70,-4.86
49.518,-0.62,3.26,-4.14
49.537,-1.26,1.56,-3.20
49.539,-2.37,1.35,-1.99
49.567,-3.41,2.15,0.63
49.568,-4.13,3.05,2.67
49.578,-3.48,3.94,4.71
49.580,-2.52,4.33,5.40
49.597,-2.68,4.67,5.70
49.598,-2.94,5.03,4.14
49.627,-2.72,4.17,2.85
49.628,-1.86,2.79,3.37
49.647,-1.90,2.17,3.06
49.649,-1.80,1.61,3.29
49.658,-3.15,0.88,1.75
49.660,-4.91,0.56,-0.01
49.675,-6.27,0.21,-0.94
49.677,-6.74,-0.21,-0.40
49.705,-4.84,-0.36,1.88
49.707,-3.29,0.15,2.89
49.715,-2.32,0.32,3.84
49.717,-1.67,0.17,4.84
49.746,-1.49,-0.09,5.51
49.748,-1.50,-0.41,5.00
49.766,-1.69,-0.87,3.46
49.769,-1.93,-0.98,2.33
49.777,-1.66,-1.22,1.69
49.779,-0.99,-1.73,1.45
49.796,-0.59,-2.05,1.35
49.806,0.14,-1.80,1.34
49.829,0.90,-1.63,1.37
49.831,1.43,-1.46,1.09
49.836,1.35,-1.42,0.68
49.837,0.96,-1.21,0.51
49.856,-0.08,-1.04,0.16
49.857,-1.76,-1.02,-0.87
49.887,-3.25,-1.04,-0.72
49.887,-3.82,-0.57,0.26
49.896,-3.01,-0.54,1.36
49.897,-2.14,-0.80,2.00
49.916,-0.67,-1.02,3.10
49.917,0.79,-0.85,3.40
49.938,2.40,-0.70,2.82
49.939,4.21,-2.93,-0.01
49.956,6.76,-2.99,2.32
49.957,8.77,-3.45,1.94
49.983,8.40,-6.19,-2.75
49.984,5.95,-6.82,-7.31
49.999,5.81,-6.47,-7.00
50.001,4.98,-5.73,-4.26
50.024,3.79,-5.41,-2.91
50.025,3.64,-4.29,-1.07
50.044,4.30,-2.75,1.33
50.045,4.61,-2.12,3.32
50.063,3.04,-1.99,1.58
50.065,0.80,-1.17,-2.64
50.083,-2.23,1.18,-3.68
50.085,-2.63,3.43,-3.52
50.103,-1.73,4.96,-2.73
50.105,-0.91,5.46,-3.08
50.123,-0.31,6.98,-3.67
50.124,-0.24,7.67,-2.31
50.143,-0.76,8.53,-2.74
50.144,-0.32,9.47,-3.89
50.164,-0.78,8.76,-2.95
50.165,-1.01,7.93,-2.08
50.183,-0.78,7.54,-1.90
50.185,-0.61,6.50,-1.82
50.203,0.15,6.17,-3.09
50.205,0.78,6.47,-3.27
50.222,0.94,6.53,-2.56
50.223,1.23,6.24,-2.15
50.242,1.17,5.65,-1.62
50.243,1.19,5.04,-1.33
50.262,0.56,4.22,-0.52
50.264,-0.07,3.25,-0.22
50.282,-0.70,2.55,0.23
50.283,-1.50,2.31,1.11
50.302,-2.19,2.57,2.08
50.304,-2.45,2.29,2.63
50.323,-3.53,1.10,3.35
50.324,-4.48,-0.72,4.82
50.344,-4.62,-4.77,6.94
50.345,-4.88,-9.13,10.29
50.364,-4.00,-13.66,10.72
50.366,-2.36,-15.12,11.14
50.394,-4.42,-15.25,10.10
50.397,-4.72,-10.99,6.84
50.404,-3.78,-6.49,3.63
50.406,-0.31,-3.34,3.98
50.424,6.17,-2.95,3.05
50.426,6.91,-7.59,-2.93
50.444,4.80,-15.69,-0.16
50.446,7.25,-19.43,-1.08
50.464,8.06,-14.93,-6.03
50.466,6.41,-1.03,-7.20
50.492,8.74,7.36,-7.01
50.494,9.52,7.00,-6.63
50.500,5.85,5.96,-7.00
50.503,1.47,5.12,-9.70
50.524,-0.43,4.39,-10.21
50.542,-0.01,3.56,-8.06
50.550,0.50,4.16,-6.85
50.551,-0.16,4.75,-6.14
50.563,-1.29,4.94,-6.01
50.564,-2.16,4.76,-5.00
50.579,-3.24,3.53,-3.72
50.580,-4.75,1.45,-1.58
50.599,-5.80,0.79,1.68
50.601,-6.27,1.30,4.70
50.619,-5.30,2.61,5.19
50.620,-4.65,3.16,4.47
50.639,-3.72,2.74,3.54
50.640,-3.28,2.27,4.34
50.659,-3.20,1.46,3.66
50.660,-2.47,1.51,3.57
50.680,-1.77,2.22,2.94
50.682,-1.43,2.40,2.51
50.700,-1.13,2.34,2.31
50.701,-1.43,2.19,1.81
50.720,-1.37,2.12,1.45
50.723,-1.22,1.67,1.19
50.740,-0.97,0.88,0.80
50.743,-0.42,0.41,0.75
50.760,-0.12,-0.11,1.16
50.761,-0.41,-0.65,1.63
50.780,-0.81,-0.78,2.26
50.781,-0.80,-0.69,2.96
50.799,-0.95,-0.54,3.05
50.801,-1.22,-0.90,2.64
50.819,-1.67,-1.52,3.21
50.820,-2.46,-1.88,3.38
50.839,-2.90,-2.03,2.54
50.840,-3.31,-2.72,1.48
50.859,-3.61,-2.97,0.34
50.861,-3.55,-3.38,0.15
50.881,-3.55,-3.59,0.88
50.884,-3.66,-3.17,1.27
50.904,-3.67,-2.64,1.96
50.906,-3.77,-2.28,2.65
50.921,-2.93,-1.75,2.69
50.922,-2.22,-1.36,2.36
50.940,-1.33,-1.20,1.48
50.942,-0.63,-1.04,1.04
50.959,-0.37,-0.63,-0.72
50.960,0.78,-0.04,-2.36
50.980,2.82,0.03,-1.90
50.982,4.46,0.78,-1.07
51.000,6.34,2.48,0.96
51.001,6.79,1.42,1.41
51.020,6.96,-1.94,-1.56
51.021,6.30,-5.02,-3.57
51.040,5.37,-5.92,-6.51
51.041,4.95,-6.23,-6.83
51.073,4.84,-5.87,-5.16
51.074,4.64,-4.83,-3.40
51.082,4.48,-3.49,-0.84
51.088,3.73,-2.61,2.22
51.103,3.48,-2.59,2.43
51.104,3.49,-2.14,-0.07
51.123,3.12,0.23,-2.82
51.124,1.17,2.54,-0.54
51.144,-0.25,3.99,0.05
51.146,-0.01,4.79,-2.02
51.163,0.43,5.99,-2.15
51.167,-0.13,6.80,-2.37
51.184,-1.71,7.28,-2.40
51.185,-2.85,6.93,-1.06
51.203,-2.61,6.14,-1.38
51.204,-2.75,5.96,-1.95
51.224,-1.95,6.11,-2.20
51.226,0.39,6.50,-2.15
51.244,-0.32,6.88,-2.90
51.251,0.39,6.51,-3.07
51.263,2.42,6.43,-3.07
51.265,2.81,5.77,-2.91
51.283,2.70,5.08,-2.85
51.286,2.03,4.45,-2.67
51.302,2.02,4.01,-2.40
51.303,1.57,3.47,-1.98
51.323,1.27,2.90,-1.25
51.324,0.41,2.63,-0.20
51.343,-0.66,2.77,1.06
51.346,-1.43,2.98,1.92
51.362,-2.35,2.01,3.13
51.363,-3.21,0.23,4.11
51.382,-4.00,-2.08,5.66
51.383,-4.33,-6.21,8.53
51.403,-4.23,-8.66,9.66
51.404,-3.57,-10.08,9.47
